Data from c2t_JH05_50uM_Absorbance_11-14-51-050.txt Node
Date: Thu Dec 21 11:14:51 GMT 2017
User: egn-admin
Spectrometer: OFX00224
Trigger mode: 0
Integration Time (sec): 5.000000E-2
Scans to average: 1
Nonlinearity correction enabled: false
Boxcar width: 0
Storing dark spectrum: false
XAxis mode: Wavelengths
Number of Pixels in Spectrum: 2136
>>>>>Begin Spectral Data<<<<<
154.91	-0
155.289	-0.1
155.669	-0
156.048	-0
156.428	0.3
156.807	0.41
157.186	-0
157.566	-0.18
157.945	-0
158.325	-0.9
158.704	-0
159.083	-0
159.462	0.09
159.842	-0
160.221	-0.12
160.6	-0
160.979	-0
161.359	-0
161.738	-0.36
162.117	-0.43
162.496	-0
162.875	-0.85
163.254	-0.06
163.633	0.37
164.012	-0
164.391	-0.9
164.77	-0.26
165.149	-0
165.528	-0
165.907	-0
166.286	-0.15
166.665	0.18
167.044	0.24
167.423	0.04
167.802	-0
168.181	0.9
168.559	-0
168.938	-0
169.317	-0.05
169.696	-0.07
170.074	-0
170.453	-0.4
170.832	-0.46
171.21	0.3
171.589	0.09
171.968	-0.12
172.346	-0
172.725	-0.23
173.103	-0
173.482	0.27
173.861	-0
174.239	0.07
174.617	0.15
174.996	-0
175.374	-1.04
175.753	-0
176.131	-0
176.51	-0
176.888	0.18
177.266	0.25
177.645	-0
178.023	0.36
178.401	0.3
178.779	-0
179.158	0.12
179.536	-0.15
179.914	-0.86
180.292	-0
180.67	0.1
181.048	-0
181.427	-0.24
181.805	0.1
182.183	0.05
182.561	-0
182.939	0.27
183.317	0.24
183.695	0.48
184.073	-0.53
184.451	-0
184.829	-0
185.206	0.19
185.584	-0.43
185.962	-0
186.34	-0
186.718	-0.03
187.096	1.11
187.473	0.98
187.851	-0
188.229	-0.06
188.607	-0
188.984	0.21
189.362	0.19
189.74	0.07
190.117	0.06
190.495	0.11
190.872	-0.15
191.25	0.46
191.627	-0.08
192.005	0.03
192.382	-0
192.76	0.9
193.137	-0.22
193.515	0.1
193.892	-0
194.269	0.03
194.647	0.05
195.024	0.3
195.401	0.18
195.779	0.34
196.156	0.02
196.533	-0.09
196.91	-0.06
197.288	-0.82
197.665	-1.58
198.042	-0.17
198.419	0.16
198.796	0.17
199.173	0.02
199.55	-0.6
199.927	-0.03
200.304	-0.19
200.681	-0.29
201.058	0.18
201.435	-0.18
201.812	0.02
202.189	0.25
202.566	0.11
202.943	0.42
203.32	0.48
203.697	0.45
204.073	-0.18
204.45	0.21
204.827	0.39
205.204	0.22
205.58	-0.27
205.957	-0.13
206.334	-0.02
206.71	0.21
207.087	0.02
207.464	-0.21
207.84	-0.09
208.217	-0.01
208.593	-0.11
208.97	0.08
209.346	-0.05
209.723	-0.12
210.099	0.21
210.476	-0.17
210.852	-0.14
211.228	-0.02
211.605	-0.12
211.981	0.04
212.357	0.81
212.733	-0
213.11	0.01
213.486	0.04
213.862	-0.26
214.238	-0.07
214.614	-0.29
214.991	-0
215.367	0.05
215.743	0.54
216.119	0.05
216.495	-0.19
216.871	0.1
217.247	0.32
217.623	0.09
217.999	-0
218.375	-0.02
218.751	-0.03
219.127	0.24
219.502	0.02
219.878	0.11
220.254	-0.33
220.63	0.09
221.006	0.47
221.381	-0.09
221.757	0.18
222.133	0.24
222.508	0.08
222.884	0.03
223.26	-0.28
223.635	-0.12
224.011	-0.14
224.386	0.3
224.762	0.02
225.137	0.48
225.513	0.15
225.888	-0.59
226.264	0.17
226.639	0.12
227.014	-0.11
227.39	0.21
227.765	0.46
228.14	0.4
228.516	0.07
228.891	-0.17
229.266	-0.14
229.641	-0
230.017	0.13
230.392	-0.1
230.767	-0.15
231.142	-0.33
231.517	0.11
231.892	0.42
232.267	0.55
232.642	0.26
233.017	-0.05
233.392	0.41
233.767	0.15
234.142	0.04
234.517	0.24
234.892	0.28
235.267	0.19
235.641	-0.18
236.016	0.02
236.391	-0.2
236.766	-0.07
237.14	0.22
237.515	0.17
237.89	0.13
238.264	0.22
238.639	0.04
239.014	-0.02
239.388	0.15
239.763	0.11
240.137	0.16
240.512	-0
240.886	1.71
241.261	0.12
241.635	0.02
242.009	0.29
242.384	0.04
242.758	0.19
243.132	0.14
243.507	0.28
243.881	0.34
244.255	0.21
244.629	0.04
245.004	0.41
245.378	0.22
245.752	0.27
246.126	0.24
246.5	0.07
246.874	0.15
247.248	0.02
247.622	-0.12
247.996	0.17
248.37	0.22
248.744	0.22
249.118	-0.14
249.492	-1.61
249.866	0.46
250.24	0.29
250.613	0.22
250.987	0.14
251.361	0.18
251.735	0.01
252.108	0.13
252.482	0.25
252.856	0.39
253.229	0.2
253.603	0.09
253.977	-0.03
254.35	0.12
254.724	0.27
255.097	0.15
255.471	0.17
255.844	0.15
256.218	0.19
256.591	0.28
256.964	0.21
257.338	0.18
257.711	0.19
258.084	0.19
258.458	0.16
258.831	0.24
259.204	0.18
259.577	0.32
259.95	0.21
260.323	0.21
260.697	0.19
261.07	0.32
261.443	0.21
261.816	0.27
262.189	0.15
262.562	0.17
262.935	0.26
263.308	0.2
263.68	0.14
264.053	0.15
264.426	0.17
264.799	0.23
265.172	0.18
265.545	0.17
265.917	0.2
266.29	0.17
266.663	0.16
267.035	0.18
267.408	0.23
267.781	0.2
268.153	0.14
268.526	0.17
268.898	0.14
269.271	0.17
269.643	0.14
270.016	0.21
270.388	0.15
270.76	0.15
271.133	0.17
271.505	0.12
271.877	0.14
272.25	0.18
272.622	0.14
272.994	0.16
273.366	0.11
273.739	0.15
274.111	0.16
274.483	0.14
274.855	0.15
275.227	0.16
275.599	0.14
275.971	0.14
276.343	0.14
276.715	0.13
277.087	0.16
277.459	0.15
277.831	0.16
278.203	0.15
278.574	0.16
278.946	0.15
279.318	0.16
279.69	0.17
280.061	0.16
280.433	0.16
280.805	0.16
281.176	0.16
281.548	0.16
281.92	0.15
282.291	0.16
282.663	0.16
283.034	0.18
283.406	0.17
283.777	0.17
284.148	0.17
284.52	0.18
284.891	0.19
285.262	0.17
285.634	0.2
286.005	0.18
286.376	0.2
286.747	0.2
287.119	0.19
287.49	0.2
287.861	0.19
288.232	0.2
288.603	0.2
288.974	0.21
289.345	0.21
289.716	0.23
290.087	0.22
290.458	0.23
290.829	0.22
291.2	0.24
291.571	0.23
291.941	0.22
292.312	0.25
292.683	0.23
293.054	0.22
293.424	0.24
293.795	0.26
294.166	0.25
294.536	0.25
294.907	0.26
295.277	0.25
295.648	0.27
296.018	0.26
296.389	0.25
296.759	0.25
297.13	0.26
297.5	0.27
297.871	0.26
298.241	0.27
298.611	0.27
298.981	0.28
299.352	0.28
299.722	0.27
300.092	0.28
300.462	0.29
300.832	0.29
301.202	0.3
301.573	0.31
301.943	0.3
302.313	0.31
302.683	0.3
303.053	0.31
303.422	0.32
303.792	0.32
304.162	0.33
304.532	0.33
304.902	0.34
305.272	0.34
305.641	0.35
306.011	0.35
306.381	0.36
306.75	0.36
307.12	0.36
307.49	0.36
307.859	0.36
308.229	0.37
308.598	0.38
308.968	0.38
309.337	0.39
309.707	0.38
310.076	0.39
310.445	0.41
310.815	0.4
311.184	0.41
311.553	0.41
311.923	0.41
312.292	0.41
312.661	0.42
313.03	0.41
313.399	0.43
313.768	0.43
314.137	0.43
314.506	0.45
314.875	0.46
315.244	0.45
315.613	0.46
315.982	0.47
316.351	0.48
316.72	0.49
317.089	0.49
317.458	0.48
317.826	0.49
318.195	0.5
318.564	0.5
318.933	0.51
319.301	0.51
319.67	0.5
320.038	0.53
320.407	0.53
320.775	0.54
321.144	0.54
321.512	0.56
321.881	0.55
322.249	0.57
322.618	0.56
322.986	0.57
323.354	0.56
323.723	0.58
324.091	0.59
324.459	0.58
324.827	0.58
325.195	0.61
325.564	0.6
325.932	0.61
326.3	0.62
326.668	0.62
327.036	0.65
327.404	0.64
327.772	0.64
328.14	0.65
328.508	0.64
328.875	0.67
329.243	0.68
329.611	0.7
329.979	0.68
330.346	0.68
330.714	0.69
331.082	0.68
331.449	0.69
331.817	0.69
332.185	0.71
332.552	0.73
332.92	0.72
333.287	0.74
333.655	0.75
334.022	0.75
334.389	0.76
334.757	0.76
335.124	0.77
335.491	0.76
335.859	0.78
336.226	0.77
336.593	0.78
336.96	0.79
337.327	0.79
337.695	0.81
338.062	0.8
338.429	0.82
338.796	0.82
339.163	0.81
339.53	0.82
339.897	0.83
340.263	0.83
340.63	0.84
340.997	0.83
341.364	0.86
341.731	0.83
342.097	0.84
342.464	0.86
342.831	0.85
343.197	0.86
343.564	0.86
343.931	0.85
344.297	0.86
344.664	0.87
345.03	0.86
345.396	0.87
345.763	0.85
346.129	0.86
346.496	0.88
346.862	0.87
347.228	0.9
347.594	0.87
347.961	0.87
348.327	0.88
348.693	0.89
349.059	0.88
349.425	0.91
349.791	0.89
350.157	0.9
350.523	0.88
350.889	0.92
351.255	0.9
351.621	0.91
351.987	0.9
352.353	0.91
352.719	0.89
353.084	0.9
353.45	0.89
353.816	0.88
354.181	0.87
354.547	0.89
354.913	0.9
355.278	0.87
355.644	0.88
356.009	0.89
356.375	0.89
356.74	0.88
357.106	0.87
357.471	0.86
357.836	0.85
358.202	0.87
358.567	0.86
358.932	0.86
359.297	0.85
359.663	0.89
360.028	0.85
360.393	0.86
360.758	0.85
361.123	0.81
361.488	0.83
361.853	0.84
362.218	0.82
362.583	0.8
362.948	0.83
363.312	0.81
363.677	0.8
364.042	0.81
364.407	0.8
364.772	0.79
365.136	0.78
365.501	0.77
365.865	0.79
366.23	0.76
366.595	0.77
366.959	0.78
367.324	0.75
367.688	0.75
368.052	0.76
368.417	0.73
368.781	0.74
369.145	0.74
369.51	0.71
369.874	0.71
370.238	0.71
370.602	0.71
370.967	0.69
371.331	0.7
371.695	0.69
372.059	0.68
372.423	0.66
372.787	0.67
373.151	0.66
373.515	0.66
373.878	0.65
374.242	0.65
374.606	0.64
374.97	0.62
375.334	0.6
375.697	0.6
376.061	0.6
376.425	0.61
376.788	0.6
377.152	0.59
377.515	0.6
377.879	0.56
378.242	0.56
378.606	0.55
378.969	0.55
379.333	0.55
379.696	0.53
380.059	0.52
380.422	0.52
380.786	0.52
381.149	0.52
381.512	0.5
381.875	0.48
382.238	0.48
382.601	0.47
382.964	0.45
383.327	0.46
383.69	0.45
384.053	0.43
384.416	0.43
384.779	0.43
385.142	0.41
385.504	0.41
385.867	0.4
386.23	0.39
386.593	0.4
386.955	0.39
387.318	0.37
387.68	0.37
388.043	0.36
388.405	0.36
388.768	0.35
389.13	0.34
389.493	0.35
389.855	0.34
390.217	0.34
390.58	0.33
390.942	0.32
391.304	0.32
391.666	0.3
392.028	0.31
392.391	0.31
392.753	0.3
393.115	0.3
393.477	0.27
393.839	0.29
394.201	0.28
394.563	0.29
394.924	0.28
395.286	0.27
395.648	0.27
396.01	0.27
396.371	0.28
396.733	0.27
397.095	0.25
397.456	0.26
397.818	0.24
398.18	0.25
398.541	0.24
398.903	0.25
399.264	0.24
399.625	0.24
399.987	0.24
400.348	0.24
400.709	0.23
401.071	0.24
401.432	0.23
401.793	0.23
402.154	0.22
402.515	0.22
402.876	0.21
403.238	0.22
403.599	0.22
403.96	0.2
404.32	0.22
404.681	0.22
405.042	0.21
405.403	0.21
405.764	0.21
406.125	0.23
406.485	0.22
406.846	0.22
407.207	0.21
407.567	0.2
407.928	0.21
408.288	0.21
408.649	0.22
409.009	0.2
409.37	0.2
409.73	0.2
410.091	0.2
410.451	0.19
410.811	0.2
411.171	0.2
411.532	0.18
411.892	0.19
412.252	0.19
412.612	0.18
412.972	0.18
413.332	0.17
413.692	0.18
414.052	0.19
414.412	0.19
414.772	0.2
415.132	0.18
415.492	0.19
415.851	0.2
416.211	0.19
416.571	0.19
416.931	0.19
417.29	0.18
417.65	0.18
418.009	0.19
418.369	0.18
418.728	0.18
419.088	0.18
419.447	0.18
419.807	0.19
420.166	0.17
420.525	0.18
420.884	0.17
421.244	0.18
421.603	0.17
421.962	0.17
422.321	0.16
422.68	0.18
423.039	0.18
423.398	0.16
423.757	0.17
424.116	0.16
424.475	0.16
424.834	0.16
425.193	0.17
425.551	0.17
425.91	0.16
426.269	0.17
426.628	0.17
426.986	0.15
427.345	0.17
427.703	0.16
428.062	0.17
428.42	0.17
428.779	0.16
429.137	0.17
429.496	0.16
429.854	0.16
430.212	0.16
430.57	0.15
430.929	0.16
431.287	0.16
431.645	0.15
432.003	0.15
432.361	0.16
432.719	0.17
433.077	0.15
433.435	0.15
433.793	0.15
434.151	0.14
434.509	0.13
434.866	0.16
435.224	0.15
435.582	0.16
435.94	0.14
436.297	0.14
436.655	0.13
437.012	0.15
437.37	0.15
437.727	0.14
438.085	0.14
438.442	0.14
438.8	0.15
439.157	0.14
439.514	0.14
439.872	0.15
440.229	0.14
440.586	0.14
440.943	0.14
441.3	0.12
441.657	0.13
442.014	0.12
442.371	0.14
442.728	0.14
443.085	0.13
443.442	0.13
443.799	0.12
444.156	0.13
444.513	0.11
444.869	0.12
445.226	0.13
445.583	0.12
445.939	0.12
446.296	0.13
446.652	0.13
447.009	0.12
447.365	0.11
447.722	0.12
448.078	0.11
448.434	0.11
448.791	0.11
449.147	0.09
449.503	0.11
449.859	0.1
450.215	0.1
450.571	0.1
450.928	0.11
451.284	0.1
451.64	0.1
451.995	0.1
452.351	0.1
452.707	0.09
453.063	0.09
453.419	0.1
453.775	0.09
454.13	0.09
454.486	0.09
454.842	0.1
455.197	0.09
455.553	0.08
455.908	0.08
456.264	0.09
456.619	0.08
456.975	0.08
457.33	0.08
457.685	0.08
458.04	0.08
458.396	0.08
458.751	0.08
459.106	0.07
459.461	0.07
459.816	0.07
460.171	0.07
460.526	0.06
460.881	0.07
461.236	0.07
461.591	0.07
461.946	0.06
462.301	0.06
462.655	0.06
463.01	0.06
463.365	0.06
463.719	0.05
464.074	0.05
464.428	0.04
464.783	0.04
465.137	0.03
465.492	0.05
465.846	0.04
466.201	0.04
466.555	0.04
466.909	0.04
467.263	0.04
467.618	0.03
467.972	0.04
468.326	0.04
468.68	0.03
469.034	0.03
469.388	0.03
469.742	0.03
470.096	0.03
470.45	0.03
470.804	0.02
471.157	0.02
471.511	0.02
471.865	0.03
472.218	0.03
472.572	0.03
472.926	0.01
473.279	0.01
473.633	0.02
473.986	0.02
474.34	0.01
474.693	0.01
475.046	0
475.4	0.01
475.753	0.01
476.106	0.01
476.459	0.01
476.812	0.01
477.165	0.01
477.519	0.01
477.872	0.01
478.224	0
478.577	0.01
478.93	0.01
479.283	0.02
479.636	-0.01
479.989	-0
480.341	-0
480.694	0.01
481.047	-0
481.399	0.01
481.752	0
482.104	-0
482.457	0.01
482.809	-0.01
483.162	-0.01
483.514	-0.01
483.866	-0.01
484.219	-0
484.571	-0
484.923	0
485.275	-0
485.627	-0.01
485.979	-0.01
486.331	-0
486.683	-0
487.035	0
487.387	0
487.739	0
488.091	0
488.443	-0.02
488.794	-0.02
489.146	-0.02
489.498	-0.01
489.849	-0.01
490.201	-0.01
490.552	-0.02
490.904	-0
491.255	-0.01
491.607	-0
491.958	-0.01
492.309	-0.02
492.661	-0.01
493.012	0
493.363	0
493.714	-0.01
494.065	-0.01
494.416	0
494.767	-0.01
495.118	-0.01
495.469	-0.02
495.82	0
496.171	-0
496.522	-0.01
496.872	-0.01
497.223	-0
497.574	-0.02
497.924	-0.01
498.275	0.01
498.626	-0
498.976	-0.02
499.327	-0.01
499.677	-0.01
500.027	-0
500.378	-0.03
500.728	-0.02
501.078	-0.01
501.428	-0.02
501.779	-0.02
502.129	-0.02
502.479	-0.01
502.829	-0.02
503.179	-0.01
503.529	-0.01
503.879	-0.01
504.229	-0
504.578	-0.02
504.928	0
505.278	-0.01
505.628	-0.02
505.977	-0.01
506.327	-0.01
506.676	-0.02
507.026	-0.02
507.375	-0.04
507.725	-0.03
508.074	-0.03
508.424	-0.02
508.773	-0.02
509.122	-0.02
509.471	-0.02
509.82	-0.02
510.17	-0.01
510.519	-0.01
510.868	-0.02
511.217	-0.01
511.566	-0.01
511.915	-0.01
512.263	-0.02
512.612	-0.01
512.961	-0
513.31	-0.01
513.659	-0.02
514.007	-0.03
514.356	-0.01
514.704	-0.02
515.053	-0.02
515.401	-0.02
515.75	-0.02
516.098	-0.03
516.447	-0.02
516.795	-0.03
517.143	-0.03
517.491	-0.03
517.839	-0.04
518.188	-0.02
518.536	-0.04
518.884	-0.03
519.232	-0.03
519.58	-0.03
519.928	-0.02
520.275	-0.02
520.623	-0.01
520.971	-0.02
521.319	-0.01
521.666	-0.03
522.014	-0.02
522.362	-0.04
522.709	-0.04
523.057	-0.04
523.404	-0.03
523.752	-0.01
524.099	-0.02
524.446	-0.02
524.794	-0.05
525.141	-0.03
525.488	-0.02
525.835	-0.03
526.182	-0.03
526.529	-0.02
526.876	-0.02
527.223	-0.03
527.57	-0.03
527.917	-0.03
528.264	-0.04
528.611	-0.03
528.958	-0.03
529.304	-0.03
529.651	-0.04
529.998	-0.03
530.344	-0.04
530.691	-0.04
531.037	-0.04
531.384	-0.04
531.73	-0.03
532.076	-0.04
532.423	-0.04
532.769	-0.03
533.115	-0.02
533.461	-0.05
533.807	-0.03
534.154	-0.03
534.5	-0.01
534.846	-0.02
535.192	-0.02
535.537	-0.03
535.883	-0.03
536.229	-0.03
536.575	-0.03
536.921	-0.03
537.266	-0.03
537.612	-0.04
537.957	-0.02
538.303	-0.03
538.649	-0.03
538.994	-0.04
539.339	-0.02
539.685	-0.03
540.03	-0.03
540.375	-0.04
540.721	-0.04
541.066	-0.03
541.411	-0.03
541.756	-0.03
542.101	-0.02
542.446	-0.03
542.791	-0.03
543.136	-0.02
543.481	-0.03
543.825	-0.04
544.17	-0.04
544.515	-0.02
544.86	-0.03
545.204	-0.04
545.549	-0.04
545.893	-0.05
546.238	-0.04
546.582	-0.02
546.927	-0.05
547.271	-0.03
547.615	-0.04
547.96	-0.03
548.304	-0.04
548.648	-0.03
548.992	-0.03
549.336	-0.04
549.68	-0.03
550.024	-0.04
550.368	-0.03
550.712	-0.04
551.056	-0.03
551.4	-0.03
551.743	-0.04
552.087	-0.02
552.431	-0.03
552.774	-0.02
553.118	-0.03
553.462	-0.03
553.805	-0.02
554.148	-0.02
554.492	-0.03
554.835	-0.03
555.178	-0.02
555.522	-0.05
555.865	-0.03
556.208	-0.02
556.551	-0.04
556.894	-0.05
557.237	-0.02
557.58	-0.04
557.923	-0.03
558.266	-0.04
558.609	-0.03
558.952	-0.05
559.294	-0.03
559.637	-0.04
559.98	-0.03
560.322	-0.02
560.665	-0.04
561.007	-0.02
561.35	-0.04
561.692	-0.02
562.034	-0.04
562.377	-0.03
562.719	-0.03
563.061	-0.03
563.403	-0.03
563.745	-0.03
564.088	-0.02
564.43	-0.03
564.772	-0.03
565.113	-0.03
565.455	-0.03
565.797	-0.03
566.139	-0.04
566.481	-0.03
566.822	-0.03
567.164	-0.02
567.506	-0.03
567.847	-0.04
568.189	-0.02
568.53	-0.04
568.872	-0.03
569.213	-0.02
569.554	-0.03
569.895	-0.03
570.237	-0.03
570.578	-0.03
570.919	-0.04
571.26	-0.03
571.601	-0.03
571.942	-0.03
572.283	-0.03
572.624	-0.03
572.965	-0.02
573.306	-0.03
573.646	-0.02
573.987	-0.04
574.328	-0.04
574.668	-0.03
575.009	-0.04
575.349	-0.04
575.69	-0.02
576.03	-0.03
576.37	-0.03
576.711	-0.03
577.051	-0.02
577.391	-0.03
577.731	-0.04
578.072	-0.02
578.412	-0.02
578.752	-0.03
579.092	-0.03
579.431	-0.02
579.771	-0.02
580.111	-0.02
580.451	-0.02
580.791	-0.04
581.13	-0.02
581.47	-0.03
581.81	-0.03
582.149	-0.03
582.489	-0.04
582.828	-0.02
583.167	-0.03
583.507	-0.01
583.846	-0.02
584.185	-0.02
584.525	-0.01
584.864	-0.02
585.203	-0.03
585.542	-0.03
585.881	-0.02
586.22	-0.02
586.559	-0.03
586.898	-0.02
587.236	-0.02
587.575	-0.02
587.914	-0.03
588.252	-0.03
588.591	-0.03
588.93	-0.03
589.268	-0.03
589.607	-0.03
589.945	-0.02
590.283	-0.03
590.622	-0.03
590.96	-0.03
591.298	-0.03
591.636	-0.03
591.974	-0.04
592.313	-0.03
592.651	-0.03
592.989	-0.04
593.326	-0.04
593.664	-0.04
594.002	-0.05
594.34	-0.04
594.678	-0.04
595.015	-0.03
595.353	-0.02
595.691	-0.03
596.028	-0.03
596.366	-0.04
596.703	-0.03
597.04	-0.03
597.378	-0.02
597.715	-0.04
598.052	-0.04
598.389	-0.05
598.726	-0.04
599.064	-0.03
599.401	-0.04
599.738	-0.04
600.074	-0.04
600.411	-0.04
600.748	-0.04
601.085	-0.03
601.422	-0.04
601.758	-0.03
602.095	-0.03
602.432	-0.02
602.768	-0.03
603.105	-0.02
603.441	-0.03
603.777	-0.02
604.114	-0.03
604.45	-0.04
604.786	-0.02
605.122	-0.03
605.459	-0.04
605.795	-0.02
606.131	-0.02
606.467	-0.03
606.803	-0.03
607.139	-0.03
607.474	-0.02
607.81	-0.03
608.146	-0.03
608.482	-0.04
608.817	-0.03
609.153	-0.03
609.488	-0.03
609.824	-0.04
610.159	-0.05
610.495	-0.05
610.83	-0.03
611.165	-0.04
611.5	-0.05
611.836	-0.04
612.171	-0.04
612.506	-0.04
612.841	-0.04
613.176	-0.04
613.511	-0.04
613.845	-0.04
614.18	-0.04
614.515	-0.04
614.85	-0.04
615.184	-0.04
615.519	-0.04
615.854	-0.04
616.188	-0.03
616.523	-0.04
616.857	-0.04
617.191	-0.04
617.526	-0.02
617.86	-0.03
618.194	-0.04
618.528	-0.03
618.862	-0.04
619.196	-0.05
619.53	-0.03
619.864	-0.04
620.198	-0.03
620.532	-0.04
620.866	-0.04
621.2	-0.05
621.533	-0.03
621.867	-0.04
622.201	-0.03
622.534	-0.04
622.868	-0.04
623.201	-0.04
623.534	-0.03
623.868	-0.03
624.201	-0.03
624.534	-0.03
624.868	-0.03
625.201	-0.02
625.534	-0.03
625.867	-0.03
626.2	-0.03
626.533	-0.03
626.865	-0.04
627.198	-0.04
627.531	-0.06
627.864	-0.04
628.196	-0.05
628.529	-0.04
628.862	-0.03
629.194	-0.03
629.527	-0.03
629.859	-0.04
630.191	-0.04
630.524	-0.04
630.856	-0.05
631.188	-0.04
631.52	-0.05
631.852	-0.05
632.184	-0.04
632.516	-0.04
632.848	-0.05
633.18	-0.05
633.512	-0.05
633.844	-0.05
634.175	-0.05
634.507	-0.04
634.839	-0.05
635.17	-0.04
635.502	-0.04
635.833	-0.05
636.165	-0.04
636.496	-0.04
636.827	-0.05
637.159	-0.06
637.49	-0.04
637.821	-0.04
638.152	-0.04
638.483	-0.03
638.814	-0.04
639.145	-0.05
639.476	-0.05
639.807	-0.03
640.137	-0.05
640.468	-0.03
640.799	-0.04
641.129	-0.04
641.46	-0.06
641.791	-0.05
642.121	-0.06
642.451	-0.04
642.782	-0.06
643.112	-0.04
643.442	-0.05
643.773	-0.04
644.103	-0.05
644.433	-0.04
644.763	-0.03
645.093	-0.04
645.423	-0.04
645.753	-0.04
646.082	-0.05
646.412	-0.05
646.742	-0.04
647.072	-0.05
647.401	-0.03
647.731	-0.05
648.06	-0.02
648.39	-0.03
648.719	-0.04
649.048	-0.04
649.378	-0.03
649.707	-0.04
650.036	-0.04
650.365	-0.04
650.694	-0.04
651.023	-0.04
651.352	-0.03
651.681	-0.04
652.01	-0.04
652.339	-0.03
652.668	-0.04
652.996	-0.03
653.325	-0.04
653.654	-0.05
653.982	-0.03
654.311	-0.04
654.639	-0.04
654.967	-0.03
655.296	-0.04
655.624	-0.05
655.952	-0.06
656.28	-0.06
656.609	-0.05
656.937	-0.04
657.265	-0.02
657.593	-0.01
657.92	-0.01
658.248	-0.01
658.576	-0.02
658.904	-0.02
659.231	-0.03
659.559	-0.03
659.887	-0.03
660.214	-0.04
660.542	-0.03
660.869	-0.04
661.196	-0.04
661.524	-0.05
661.851	-0.03
662.178	-0.04
662.505	-0.04
662.832	-0.05
663.159	-0.04
663.486	-0.05
663.813	-0.05
664.14	-0.05
664.467	-0.04
664.794	-0.03
665.12	-0.03
665.447	-0.04
665.774	-0.04
666.1	-0.04
666.427	-0.07
666.753	-0.04
667.079	-0.05
667.406	-0.04
667.732	-0.04
668.058	-0.02
668.384	-0.05
668.71	-0.04
669.036	-0.04
669.362	-0.04
669.688	-0.04
670.014	-0.05
670.34	-0.03
670.666	-0.05
670.991	-0.04
671.317	-0.05
671.643	-0.06
671.968	-0.05
672.294	-0.06
672.619	-0.05
672.945	-0.05
673.27	-0.05
673.595	-0.04
673.92	-0.04
674.246	-0.05
674.571	-0.04
674.896	-0.04
675.221	-0.05
675.546	-0.06
675.87	-0.06
676.195	-0.05
676.52	-0.05
676.845	-0.04
677.169	-0.04
677.494	-0.02
677.819	-0.04
678.143	-0.02
678.468	-0.03
678.792	-0.04
679.116	-0.03
679.44	-0.03
679.765	-0.04
680.089	-0.05
680.413	-0.03
680.737	-0.03
681.061	-0.04
681.385	-0.04
681.709	-0.04
682.033	-0.04
682.356	-0.04
682.68	-0.04
683.004	-0.04
683.327	-0.05
683.651	-0.05
683.974	-0.05
684.298	-0.07
684.621	-0.05
684.944	-0.06
685.268	-0.05
685.591	-0.04
685.914	-0.05
686.237	-0.05
686.56	-0.05
686.883	-0.06
687.206	-0.05
687.529	-0.04
687.852	-0.05
688.175	-0.05
688.497	-0.04
688.82	-0.05
689.142	-0.05
689.465	-0.07
689.787	-0.05
690.11	-0.06
690.432	-0.06
690.755	-0.07
691.077	-0.05
691.399	-0.07
691.721	-0.07
692.043	-0.06
692.365	-0.06
692.687	-0.05
693.009	-0.06
693.331	-0.04
693.653	-0.05
693.974	-0.05
694.296	-0.06
694.618	-0.04
694.939	-0.05
695.261	-0.06
695.582	-0.05
695.904	-0.05
696.225	-0.06
696.546	-0.06
696.868	-0.04
697.189	-0.05
697.51	-0.06
697.831	-0.05
698.152	-0.04
698.473	-0.05
698.794	-0.05
699.114	-0.06
699.435	-0.06
699.756	-0.05
700.077	-0.06
700.397	-0.05
700.718	-0.06
701.038	-0.05
701.359	-0.05
701.679	-0.04
701.999	-0.05
702.32	-0.05
702.64	-0.06
702.96	-0.06
703.28	-0.06
703.6	-0.05
703.92	-0.06
704.24	-0.06
704.56	-0.06
704.879	-0.06
705.199	-0.06
705.519	-0.05
705.838	-0.06
706.158	-0.06
706.478	-0.06
706.797	-0.06
707.116	-0.04
707.436	-0.04
707.755	-0.05
708.074	-0.04
708.393	-0.04
708.712	-0.03
709.031	-0.04
709.35	-0.03
709.669	-0.04
709.988	-0.04
710.307	-0.04
710.626	-0.04
710.944	-0.04
711.263	-0.05
711.582	-0.06
711.9	-0.06
712.219	-0.05
712.537	-0.06
712.855	-0.05
713.174	-0.05
713.492	-0.05
713.81	-0.06
714.128	-0.06
714.446	-0.06
714.764	-0.06
715.082	-0.05
715.4	-0.05
715.718	-0.05
716.035	-0.04
716.353	-0.04
716.671	-0.05
716.988	-0.05
717.306	-0.04
717.623	-0.05
717.941	-0.05
718.258	-0.05
718.575	-0.05
718.893	-0.06
719.21	-0.05
719.527	-0.05
719.844	-0.06
720.161	-0.06
720.478	-0.06
720.795	-0.06
721.112	-0.07
721.428	-0.06
721.745	-0.06
722.062	-0.05
722.378	-0.06
722.695	-0.05
723.011	-0.06
723.328	-0.06
723.644	-0.06
723.96	-0.05
724.276	-0.06
724.593	-0.06
724.909	-0.05
725.225	-0.06
725.541	-0.06
725.857	-0.05
726.173	-0.06
726.488	-0.06
726.804	-0.06
727.12	-0.05
727.435	-0.04
727.751	-0.05
728.067	-0.05
728.382	-0.05
728.697	-0.05
729.013	-0.06
729.328	-0.05
729.643	-0.06
729.958	-0.06
730.273	-0.06
730.588	-0.06
730.903	-0.05
731.218	-0.05
731.533	-0.04
731.848	-0.04
732.163	-0.04
732.477	-0.04
732.792	-0.04
733.107	-0.03
733.421	-0.05
733.736	-0.05
734.05	-0.05
734.364	-0.02
734.678	-0.05
734.993	-0.04
735.307	-0.05
735.621	-0.04
735.935	-0.05
736.249	-0.03
736.563	-0.03
736.877	-0.04
737.19	-0.04
737.504	-0.04
737.818	-0.04
738.131	-0.03
738.445	-0.02
738.758	-0.03
739.072	-0.05
739.385	-0.03
739.698	-0.03
740.012	-0.04
740.325	-0.03
740.638	-0.03
740.951	-0.03
741.264	-0.05
741.577	-0.04
741.89	-0.05
742.203	-0.04
742.515	-0.04
742.828	-0.05
743.141	-0.04
743.453	-0.04
743.766	-0.03
744.078	-0.04
744.391	-0.04
744.703	-0.04
745.015	-0.04
745.327	-0.03
745.639	-0.02
745.952	-0.04
746.264	-0.03
746.575	-0.04
746.887	-0.04
747.199	-0.05
747.511	-0.04
747.823	-0.05
748.134	-0.04
748.446	-0.05
748.757	-0.05
749.069	-0.07
749.38	-0.05
749.692	-0.05
750.003	-0.05
750.314	-0.05
750.625	-0.06
750.936	-0.05
751.248	-0.04
751.559	-0.05
751.869	-0.06
752.18	-0.04
752.491	-0.05
752.802	-0.05
753.112	-0.06
753.423	-0.04
753.734	-0.04
754.044	-0.06
754.355	-0.04
754.665	-0.05
754.975	-0.05
755.285	-0.04
755.596	-0.03
755.906	-0.02
756.216	-0.03
756.526	-0.02
756.836	-0.01
757.146	-0.01
757.455	-0.01
757.765	-0.01
758.075	-0.01
758.385	-0.02
758.694	-0
759.004	-0.01
759.313	-0.01
759.622	-0.02
759.932	-0.01
760.241	-0.01
760.55	-0.01
760.859	-0.01
761.168	-0.01
761.477	-0.02
761.786	-0.03
762.095	-0.04
762.404	-0.05
762.713	-0.04
763.021	-0.04
763.33	-0.04
763.639	-0.03
763.947	-0.03
764.256	-0.03
764.564	-0.03
764.872	-0.02
765.181	-0.03
765.489	-0.01
765.797	-0.02
766.105	-0.02
766.413	-0.03
766.721	-0.02
767.029	-0.03
767.337	-0.02
767.644	-0.04
767.952	-0.04
768.26	-0.02
768.567	-0.03
768.875	-0.02
769.182	-0.03
769.49	-0.04
769.797	-0.03
770.104	-0.03
770.411	-0.01
770.718	-0.02
771.026	-0.03
771.333	-0
771.639	-0.02
771.946	-0.03
772.253	-0.02
772.56	-0.03
772.867	-0.04
773.173	-0.03
773.48	-0.04
773.786	-0.05
774.093	-0.03
774.399	-0.04
774.705	-0.04
775.012	-0.04
775.318	-0.02
775.624	-0.04
775.93	-0.03
776.236	-0.04
776.542	-0.03
776.848	-0.05
777.154	-0.02
777.459	-0.03
777.765	-0.04
778.071	-0.03
778.376	-0.04
778.682	-0.04
778.987	-0.02
779.292	-0.04
779.598	-0.03
779.903	-0.01
780.208	-0.03
780.513	-0.02
780.818	-0.03
781.123	-0.01
781.428	-0.03
781.733	-0.03
782.038	-0.03
782.343	-0.02
782.647	-0.02
782.952	-0
783.256	-0.02
783.561	-0.01
783.865	-0.02
784.17	-0.02
784.474	-0.01
784.778	-0.01
785.082	-0
785.386	-0.03
785.69	-0
785.994	-0.01
786.298	-0
786.602	-0
786.906	0.01
787.209	0.01
787.513	-0
787.817	0
788.12	0.03
788.424	0.01
788.727	0.01
789.03	0.02
789.333	0.02
789.637	0
789.94	0.01
790.243	-0.02
790.546	0.02
790.849	-0
791.152	0.01
791.454	0
791.757	-0
792.06	-0.03
792.362	-0
792.665	-0.05
792.967	-0.01
793.27	0
793.572	0.01
793.874	-0
794.177	0.01
794.479	0.03
794.781	0.02
795.083	0.02
795.385	0
795.687	0.03
795.989	0
796.29	0.01
796.592	0.01
796.894	-0.01
797.195	0.04
797.497	0.01
797.798	0.01
798.1	0.02
798.401	0
798.702	0.02
799.003	-0
799.304	0.04
799.605	0.02
799.906	0.03
800.207	0.03
800.508	0.03
800.809	0.06
801.11	0.04
801.41	0.03
801.711	0.01
802.011	0.05
802.312	0.06
802.612	0.02
802.913	0.05
803.213	0.04
803.513	0.04
803.813	0
804.113	0.03
804.413	0.06
804.713	0.01
805.013	0.03
805.313	0.03
805.613	0.03
805.912	0.06
806.212	0.04
806.511	0.01
806.811	0.06
807.11	0.03
807.41	0.08
807.709	0.01
808.008	0.05
808.307	0.04
808.606	0.06
808.905	0.05
809.204	0.07
809.503	0.1
809.802	0.07
810.101	0.06
810.399	0.04
810.698	0.03
810.997	0.03
811.295	0.06
811.593	0.02
811.892	0.04
812.19	0.05
812.488	0.06
812.786	0.1
813.084	0.01
813.383	0.04
813.68	0.03
813.978	0.06
814.276	0.07
814.574	0.09
814.872	0.12
815.169	0.1
815.467	0.08
815.764	0.06
816.062	0.01
816.359	0.04
816.656	0.11
816.954	0.02
817.251	0.03
817.548	0.06
817.845	0.1
818.142	0.06
818.439	-0
818.735	-0
819.032	0.05
819.329	0.05
819.626	0.04
819.922	0.04
820.219	0.07
820.515	0.14
820.811	0.09
821.108	0.03
821.404	0.12
821.7	0.03
821.996	0.08
822.292	0.15
822.588	-0.02
822.884	0.08
823.18	0.07
823.475	-0.02
823.771	0.06
824.067	0.04
824.362	0.05
824.658	0.03
824.953	-0.04
825.249	0.1
825.544	0.08
825.839	0.08
826.134	0.06
826.429	0.05
826.724	0.06
827.019	0.03
827.314	-0.1
827.609	0.04
827.904	0.03
828.198	0.05
828.493	0.07
828.787	-0.01
829.082	0.1
829.376	0.18
829.671	-0.05
829.965	0.08
830.259	0.02
830.553	0.02
830.847	0.08
831.141	-0.07
831.435	0.02
831.729	0.05
832.023	0.02
832.317	0.01
832.61	-0.01
832.904	0.03
833.197	0.08
833.491	0.11
833.784	-0.07
834.077	0.03
834.371	0.09
834.664	-0.03
834.957	0.01
835.25	0.15
835.543	-0.01
835.836	0.06
836.129	0.05
836.421	-0.05
836.714	-0.11
837.007	0.12
837.299	0.09
837.592	0
837.884	-0
838.177	0.02
838.469	0.06
838.761	-0
839.053	0.04
839.345	0.07
839.637	-0.05
839.929	-0.06
840.221	-0.01
840.513	-0.11
840.805	0.03
841.096	-0
841.388	-0.06
841.68	-0.13
841.971	-0.01
842.262	-0.02
842.554	-0.06
842.845	0.03
843.136	-0.24
843.427	-0.06
843.718	-0.02
844.009	-0.03
844.3	-0.16
844.591	-0.04
844.882	-0.2
845.173	0.08
845.463	-0.07
845.754	-0.25
846.044	-0.09
846.335	-0.14
846.625	-0.04
846.915	-0.39
847.206	0.02
847.496	-0.2
847.786	-0.08
848.076	-0.3
848.366	-0.15
848.656	-0.15
848.945	0.04
849.235	-0.06
849.525	-0.24
849.814	0.79
850.104	-0.01
850.393	-0.27
850.683	-0.44
850.972	-0.28
851.261	-0
851.551	-0.15
851.84	0.19
852.129	-0.01
852.418	-0.17
852.707	-0.16
852.995	-0.02
853.284	0.35
853.573	0.3
853.862	-0.14
854.15	0.28
854.439	-0.33
854.727	-0.79
855.015	0.19
855.304	-0.11
855.592	-0.08
855.88	-0.38
856.168	-0.15
856.456	-0.01
856.744	-0.03
857.032	-0.06
857.32	-0.02
857.607	-0.27
857.895	0.05
858.183	-0.69
858.47	0.09
858.757	-0
859.045	-0
859.332	-0
859.619	-0.23
859.907	-0.29
860.194	0.03
860.481	-0
860.768	-0
861.054	-0
861.341	-0
861.628	-0
861.915	-0.27
862.201	-0.11
862.488	-0.38
862.774	-0
863.061	0.04
863.347	-0.12
863.633	0.48
863.919	-0.24
864.205	-0
864.491	-0.26
864.777	-0
865.063	-0.14
865.349	-0
865.635	-0.21
865.92	-0.51
866.206	-0.1
866.492	-0
866.777	-0.3
867.062	-0
867.348	-0
867.633	-0.45
867.918	0.3
868.203	-0
868.488	-0
868.773	-1.32
869.058	0.23
869.343	-0.6
869.628	-0.41
869.912	-0
870.197	0.48
870.482	-0
870.766	-0.74
871.05	-0
871.335	-0
871.619	0.52
871.903	-0.21
872.187	0.34
872.471	0.63
872.755	-1
873.039	0.04
873.323	-0.03
873.607	0.9
873.89	-0.4
874.174	0.12
874.458	-0.03
874.741	-0
875.024	0.6
875.308	-0
875.591	-0
875.874	0.03
876.157	-0
876.44	0.12
876.723	0.39
877.006	-0
877.289	-0.65
877.572	-0
877.854	0.29
878.137	-0.35
878.42	-0
878.702	-0.2
878.984	-0
879.267	0.02
879.549	0.1
879.831	-0.48
880.113	-0.97
880.395	-0.15
880.677	-1.06
880.959	-0.15
