Data from c2t_JH05_50uM_Absorbance_11-14-55-044.txt Node
Date: Thu Dec 21 11:14:55 GMT 2017
User: egn-admin
Spectrometer: OFX00224
Trigger mode: 0
Integration Time (sec): 5.000000E-2
Scans to average: 1
Nonlinearity correction enabled: false
Boxcar width: 0
Storing dark spectrum: false
XAxis mode: Wavelengths
Number of Pixels in Spectrum: 2136
>>>>>Begin Spectral Data<<<<<
154.91	-0
155.289	0.8
155.669	0.04
156.048	0.06
156.428	-0.6
156.807	-0
157.186	-0
157.566	-0.26
157.945	0.76
158.325	-1.06
158.704	-0
159.083	-0
159.462	0.03
159.842	-0
160.221	0.48
160.6	-0
160.979	0.12
161.359	-0
161.738	-0
162.117	-0.36
162.496	0.85
162.875	-0
163.254	-0.24
163.633	-0.15
164.012	-0
164.391	-0
164.77	-0.37
165.149	-0
165.528	-0
165.907	-0
166.286	-0.23
166.665	0.16
167.044	-0.06
167.423	-0
167.802	-0
168.181	0.06
168.559	-0
168.938	-0
169.317	0.44
169.696	-0.26
170.074	0.54
170.453	-0
170.832	-0.54
171.21	-0
171.589	0.42
171.968	-0
172.346	-0
172.725	-0.08
173.103	-0
173.482	-0.05
173.861	-0
174.239	0.54
174.617	-0.15
174.996	-0
175.374	-0.9
175.753	-0.4
176.131	-0.11
176.51	0.08
176.888	0.06
177.266	0.02
177.645	-0
178.023	0.2
178.401	-0
178.779	-0
179.158	0.1
179.536	-0
179.914	-0.58
180.292	-0
180.67	-0.08
181.048	-0
181.427	-0.18
181.805	0.54
182.183	0.78
182.561	-0
182.939	-0.06
183.317	-0
183.695	-0.37
184.073	-0
184.451	-0
184.829	-0
185.206	-0
185.584	-0.2
185.962	-0
186.34	-0.08
186.718	-0.05
187.096	-0
187.473	0.58
187.851	-0
188.229	-0.11
188.607	-0.15
188.984	0.32
189.362	0.67
189.74	0.36
190.117	-0
190.495	0.03
190.872	0.16
191.25	0.5
191.627	-0
192.005	0.11
192.382	-0
192.76	0.04
193.137	-0
193.515	0.23
193.892	0.44
194.269	0.37
194.647	-0.05
195.024	-0.05
195.401	0.11
195.779	0.19
196.156	0.29
196.533	0.03
196.91	0.09
197.288	-0.97
197.665	-1.3
198.042	-0.1
198.419	0.14
198.796	0.18
199.173	1
199.55	-0
199.927	-0.5
200.304	-0.06
200.681	-0
201.058	0.54
201.435	0.12
201.812	-0.15
202.189	0.36
202.566	0.09
202.943	0.31
203.32	0.72
203.697	0.51
204.073	-0.16
204.45	0.28
204.827	-0.25
205.204	0.46
205.58	0.36
205.957	-0.04
206.334	0.1
206.71	0.16
207.087	0.1
207.464	0.07
207.84	0.28
208.217	0.08
208.593	0.21
208.97	-0.11
209.346	-0.1
209.723	0.03
210.099	0.69
210.476	-0.2
210.852	0.05
211.228	-0.02
211.605	0.1
211.981	0.37
212.357	1.11
212.733	0.18
213.11	-0.07
213.486	0.02
213.862	0.52
214.238	0.01
214.614	0.02
214.991	0.32
215.367	0.22
215.743	0.3
216.119	0.25
216.495	-0.21
216.871	0.12
217.247	0.14
217.623	0.28
217.999	0.18
218.375	0.25
218.751	0.45
219.127	1.47
219.502	0.22
219.878	0.09
220.254	-0.04
220.63	-0.2
221.006	0.36
221.381	-0
221.757	0.28
222.133	-0.1
222.508	0.19
222.884	0.05
223.26	-0.11
223.635	0.04
224.011	-0.17
224.386	0.27
224.762	-0.08
225.137	0.24
225.513	-0.02
225.888	-0.57
226.264	0.42
226.639	0.11
227.014	0.19
227.39	0.21
227.765	0.31
228.14	0.63
228.516	0.34
228.891	0.15
229.266	0.3
229.641	-0
230.017	0.04
230.392	0.3
230.767	0.03
231.142	-0.12
231.517	0.23
231.892	0.24
232.267	0.21
232.642	-0.04
233.017	0.58
233.392	0.26
233.767	0.26
234.142	0.08
234.517	0.39
234.892	0.25
235.267	0.19
235.641	-0.21
236.016	-0
236.391	0.08
236.766	-0.3
237.14	0.42
237.515	0.32
237.89	0.42
238.264	0.63
238.639	0.11
239.014	0.22
239.388	0.18
239.763	0.26
240.137	0.16
240.512	0.13
240.886	-0
241.261	-0.01
241.635	-0.05
242.009	0.29
242.384	-0.05
242.758	0.71
243.132	0.12
243.507	-0.02
243.881	0.56
244.255	0.14
244.629	-0.08
245.004	0.33
245.378	0.19
245.752	0.32
246.126	0.09
246.5	0.13
246.874	0.01
247.248	0.36
247.622	0.42
247.996	0.27
248.37	0.47
248.744	0.34
249.118	0.25
249.492	-0
249.866	0.18
250.24	0.17
250.613	0.46
250.987	0.21
251.361	0.26
251.735	0.04
252.108	0.15
252.482	0.25
252.856	0.25
253.229	0.12
253.603	0.09
253.977	0.19
254.35	0.08
254.724	0.27
255.097	0.38
255.471	0.23
255.844	0.23
256.218	0.34
256.591	0.21
256.964	0.15
257.338	0.3
257.711	0.33
258.084	0.42
258.458	0.21
258.831	0.19
259.204	0.2
259.577	0.31
259.95	0.22
260.323	0.3
260.697	0.15
261.07	0.29
261.443	0.25
261.816	0.3
262.189	0.22
262.562	0.2
262.935	0.25
263.308	0.19
263.68	0.2
264.053	0.17
264.426	0.26
264.799	0.2
265.172	0.2
265.545	0.19
265.917	0.21
266.29	0.18
266.663	0.15
267.035	0.16
267.408	0.24
267.781	0.24
268.153	0.17
268.526	0.17
268.898	0.12
269.271	0.16
269.643	0.18
270.016	0.17
270.388	0.16
270.76	0.18
271.133	0.15
271.505	0.12
271.877	0.11
272.25	0.15
272.622	0.14
272.994	0.14
273.366	0.14
273.739	0.14
274.111	0.15
274.483	0.13
274.855	0.14
275.227	0.16
275.599	0.16
275.971	0.15
276.343	0.17
276.715	0.14
277.087	0.15
277.459	0.12
277.831	0.15
278.203	0.13
278.574	0.16
278.946	0.15
279.318	0.14
279.69	0.15
280.061	0.16
280.433	0.15
280.805	0.16
281.176	0.17
281.548	0.15
281.92	0.16
282.291	0.16
282.663	0.16
283.034	0.19
283.406	0.17
283.777	0.17
284.148	0.17
284.52	0.19
284.891	0.17
285.262	0.18
285.634	0.2
286.005	0.19
286.376	0.18
286.747	0.19
287.119	0.19
287.49	0.19
287.861	0.21
288.232	0.2
288.603	0.21
288.974	0.21
289.345	0.21
289.716	0.23
290.087	0.24
290.458	0.23
290.829	0.23
291.2	0.23
291.571	0.23
291.941	0.22
292.312	0.23
292.683	0.23
293.054	0.24
293.424	0.23
293.795	0.24
294.166	0.25
294.536	0.25
294.907	0.25
295.277	0.25
295.648	0.25
296.018	0.26
296.389	0.26
296.759	0.26
297.13	0.26
297.5	0.26
297.871	0.26
298.241	0.28
298.611	0.29
298.981	0.28
299.352	0.29
299.722	0.29
300.092	0.28
300.462	0.3
300.832	0.29
301.202	0.29
301.573	0.31
301.943	0.31
302.313	0.31
302.683	0.32
303.053	0.31
303.422	0.32
303.792	0.32
304.162	0.33
304.532	0.33
304.902	0.34
305.272	0.34
305.641	0.34
306.011	0.35
306.381	0.35
306.75	0.35
307.12	0.36
307.49	0.37
307.859	0.36
308.229	0.38
308.598	0.38
308.968	0.38
309.337	0.39
309.707	0.39
310.076	0.39
310.445	0.4
310.815	0.4
311.184	0.4
311.553	0.4
311.923	0.41
312.292	0.41
312.661	0.42
313.03	0.42
313.399	0.42
313.768	0.44
314.137	0.44
314.506	0.45
314.875	0.45
315.244	0.46
315.613	0.47
315.982	0.46
316.351	0.48
316.72	0.48
317.089	0.5
317.458	0.49
317.826	0.5
318.195	0.5
318.564	0.51
318.933	0.51
319.301	0.52
319.67	0.52
320.038	0.53
320.407	0.54
320.775	0.55
321.144	0.55
321.512	0.56
321.881	0.56
322.249	0.56
322.618	0.57
322.986	0.58
323.354	0.56
323.723	0.58
324.091	0.6
324.459	0.61
324.827	0.6
325.195	0.62
325.564	0.61
325.932	0.62
326.3	0.63
326.668	0.64
327.036	0.64
327.404	0.65
327.772	0.64
328.14	0.66
328.508	0.67
328.875	0.68
329.243	0.69
329.611	0.7
329.979	0.7
330.346	0.71
330.714	0.68
331.082	0.69
331.449	0.7
331.817	0.72
332.185	0.73
332.552	0.73
332.92	0.74
333.287	0.75
333.655	0.76
334.022	0.76
334.389	0.76
334.757	0.77
335.124	0.8
335.491	0.77
335.859	0.78
336.226	0.8
336.593	0.79
336.96	0.78
337.327	0.8
337.695	0.8
338.062	0.81
338.429	0.83
338.796	0.83
339.163	0.83
339.53	0.83
339.897	0.82
340.263	0.85
340.63	0.85
340.997	0.83
341.364	0.85
341.731	0.86
342.097	0.87
342.464	0.87
342.831	0.86
343.197	0.87
343.564	0.87
343.931	0.87
344.297	0.88
344.664	0.88
345.03	0.88
345.396	0.88
345.763	0.88
346.129	0.88
346.496	0.89
346.862	0.89
347.228	0.92
347.594	0.89
347.961	0.89
348.327	0.9
348.693	0.89
349.059	0.89
349.425	0.91
349.791	0.91
350.157	0.91
350.523	0.92
350.889	0.91
351.255	0.92
351.621	0.94
351.987	0.91
352.353	0.9
352.719	0.92
353.084	0.91
353.45	0.93
353.816	0.9
354.181	0.91
354.547	0.9
354.913	0.92
355.278	0.89
355.644	0.9
356.009	0.91
356.375	0.87
356.74	0.89
357.106	0.87
357.471	0.9
357.836	0.89
358.202	0.89
358.567	0.87
358.932	0.9
359.297	0.89
359.663	0.89
360.028	0.87
360.393	0.89
360.758	0.86
361.123	0.83
361.488	0.84
361.853	0.86
362.218	0.86
362.583	0.82
362.948	0.83
363.312	0.83
363.677	0.81
364.042	0.82
364.407	0.81
364.772	0.81
365.136	0.78
365.501	0.79
365.865	0.82
366.23	0.77
366.595	0.81
366.959	0.78
367.324	0.77
367.688	0.74
368.052	0.75
368.417	0.76
368.781	0.75
369.145	0.75
369.51	0.72
369.874	0.72
370.238	0.71
370.602	0.71
370.967	0.68
371.331	0.71
371.695	0.71
372.059	0.69
372.423	0.68
372.787	0.7
373.151	0.68
373.515	0.66
373.878	0.66
374.242	0.67
374.606	0.65
374.97	0.63
375.334	0.63
375.697	0.62
376.061	0.61
376.425	0.6
376.788	0.61
377.152	0.6
377.515	0.59
377.879	0.57
378.242	0.56
378.606	0.56
378.969	0.56
379.333	0.54
379.696	0.54
380.059	0.54
380.422	0.52
380.786	0.51
381.149	0.51
381.512	0.49
381.875	0.49
382.238	0.49
382.601	0.48
382.964	0.46
383.327	0.46
383.69	0.47
384.053	0.44
384.416	0.44
384.779	0.43
385.142	0.43
385.504	0.42
385.867	0.4
386.23	0.4
386.593	0.39
386.955	0.4
387.318	0.39
387.68	0.37
388.043	0.37
388.405	0.37
388.768	0.36
389.13	0.35
389.493	0.35
389.855	0.34
390.217	0.35
390.58	0.35
390.942	0.32
391.304	0.32
391.666	0.31
392.028	0.32
392.391	0.31
392.753	0.31
393.115	0.31
393.477	0.29
393.839	0.29
394.201	0.29
394.563	0.29
394.924	0.28
395.286	0.29
395.648	0.28
396.01	0.27
396.371	0.27
396.733	0.26
397.095	0.27
397.456	0.26
397.818	0.25
398.18	0.26
398.541	0.24
398.903	0.24
399.264	0.24
399.625	0.24
399.987	0.24
400.348	0.23
400.709	0.24
401.071	0.24
401.432	0.24
401.793	0.23
402.154	0.22
402.515	0.22
402.876	0.22
403.238	0.23
403.599	0.23
403.96	0.21
404.32	0.22
404.681	0.24
405.042	0.23
405.403	0.21
405.764	0.22
406.125	0.22
406.485	0.22
406.846	0.23
407.207	0.21
407.567	0.21
407.928	0.21
408.288	0.2
408.649	0.21
409.009	0.2
409.37	0.21
409.73	0.19
410.091	0.19
410.451	0.19
410.811	0.19
411.171	0.19
411.532	0.18
411.892	0.19
412.252	0.18
412.612	0.18
412.972	0.19
413.332	0.18
413.692	0.19
414.052	0.2
414.412	0.2
414.772	0.21
415.132	0.19
415.492	0.19
415.851	0.18
416.211	0.19
416.571	0.19
416.931	0.18
417.29	0.2
417.65	0.18
418.009	0.19
418.369	0.19
418.728	0.17
419.088	0.18
419.447	0.17
419.807	0.17
420.166	0.17
420.525	0.18
420.884	0.18
421.244	0.18
421.603	0.18
421.962	0.17
422.321	0.17
422.68	0.19
423.039	0.19
423.398	0.15
423.757	0.16
424.116	0.16
424.475	0.18
424.834	0.17
425.193	0.17
425.551	0.16
425.91	0.15
426.269	0.17
426.628	0.18
426.986	0.15
427.345	0.17
427.703	0.16
428.062	0.17
428.42	0.17
428.779	0.16
429.137	0.17
429.496	0.17
429.854	0.17
430.212	0.17
430.57	0.16
430.929	0.16
431.287	0.16
431.645	0.15
432.003	0.15
432.361	0.16
432.719	0.16
433.077	0.15
433.435	0.14
433.793	0.15
434.151	0.15
434.509	0.15
434.866	0.15
435.224	0.15
435.582	0.15
435.94	0.15
436.297	0.14
436.655	0.13
437.012	0.15
437.37	0.15
437.727	0.14
438.085	0.14
438.442	0.13
438.8	0.14
439.157	0.13
439.514	0.14
439.872	0.14
440.229	0.14
440.586	0.13
440.943	0.13
441.3	0.12
441.657	0.12
442.014	0.13
442.371	0.13
442.728	0.13
443.085	0.13
443.442	0.12
443.799	0.12
444.156	0.12
444.513	0.12
444.869	0.13
445.226	0.12
445.583	0.12
445.939	0.12
446.296	0.12
446.652	0.12
447.009	0.12
447.365	0.11
447.722	0.11
448.078	0.12
448.434	0.11
448.791	0.11
449.147	0.1
449.503	0.11
449.859	0.1
450.215	0.1
450.571	0.1
450.928	0.1
451.284	0.1
451.64	0.1
451.995	0.09
452.351	0.11
452.707	0.09
453.063	0.1
453.419	0.1
453.775	0.09
454.13	0.09
454.486	0.1
454.842	0.1
455.197	0.08
455.553	0.07
455.908	0.08
456.264	0.08
456.619	0.08
456.975	0.08
457.33	0.07
457.685	0.08
458.04	0.07
458.396	0.08
458.751	0.07
459.106	0.08
459.461	0.07
459.816	0.06
460.171	0.07
460.526	0.07
460.881	0.06
461.236	0.06
461.591	0.06
461.946	0.06
462.301	0.06
462.655	0.06
463.01	0.05
463.365	0.04
463.719	0.06
464.074	0.05
464.428	0.04
464.783	0.03
465.137	0.04
465.492	0.03
465.846	0.04
466.201	0.04
466.555	0.03
466.909	0.04
467.263	0.04
467.618	0.03
467.972	0.02
468.326	0.03
468.68	0.03
469.034	0.02
469.388	0.03
469.742	0.03
470.096	0.02
470.45	0.03
470.804	0.02
471.157	0.02
471.511	0.01
471.865	0.01
472.218	0.02
472.572	0.03
472.926	0.01
473.279	0.02
473.633	0.01
473.986	0.02
474.34	0.02
474.693	0.02
475.046	0.01
475.4	0
475.753	0.01
476.106	-0
476.459	0.01
476.812	0.01
477.165	0.01
477.519	0.01
477.872	0.01
478.224	0
478.577	0.02
478.93	0.02
479.283	0.01
479.636	-0.01
479.989	-0
480.341	-0.01
480.694	0.01
481.047	0
481.399	0.01
481.752	-0
482.104	-0
482.457	0.01
482.809	-0.01
483.162	-0.01
483.514	-0.01
483.866	-0.01
484.219	-0.01
484.571	-0.01
484.923	0
485.275	0
485.627	-0
485.979	-0
486.331	-0.01
486.683	-0
487.035	0
487.387	0.01
487.739	0.01
488.091	0.01
488.443	-0.01
488.794	-0.02
489.146	-0.01
489.498	0
489.849	-0
490.201	-0.02
490.552	-0.01
490.904	-0.01
491.255	-0.01
491.607	-0
491.958	-0.01
492.309	-0.01
492.661	-0
493.012	-0
493.363	-0.01
493.714	-0.02
494.065	-0.02
494.416	0
494.767	-0.01
495.118	-0.01
495.469	0
495.82	-0
496.171	0.01
496.522	-0.02
496.872	-0.01
497.223	-0.01
497.574	-0.03
497.924	-0.01
498.275	0.01
498.626	-0
498.976	-0.02
499.327	-0.01
499.677	-0.01
500.027	-0.02
500.378	-0.01
500.728	-0.04
501.078	-0.01
501.428	-0.01
501.779	-0.02
502.129	-0.03
502.479	-0
502.829	-0.01
503.179	-0.01
503.529	-0.02
503.879	-0.01
504.229	-0
504.578	-0.03
504.928	0
505.278	-0.02
505.628	-0.02
505.977	-0.01
506.327	-0.03
506.676	-0.02
507.026	-0.02
507.375	-0.03
507.725	-0.04
508.074	-0.03
508.424	-0.03
508.773	-0.02
509.122	-0.03
509.471	-0.03
509.82	-0.03
510.17	-0.02
510.519	-0.02
510.868	-0.03
511.217	-0.01
511.566	-0.01
511.915	-0.01
512.263	-0.01
512.612	-0.01
512.961	-0.02
513.31	-0.03
513.659	-0.02
514.007	-0.03
514.356	-0.03
514.704	-0.02
515.053	0
515.401	-0.03
515.75	-0.03
516.098	-0.03
516.447	-0.02
516.795	-0.03
517.143	-0.04
517.491	-0.03
517.839	-0.04
518.188	-0.04
518.536	-0.03
518.884	-0.02
519.232	-0.03
519.58	-0.02
519.928	-0.02
520.275	-0.02
520.623	-0.02
520.971	-0.02
521.319	-0.03
521.666	-0.04
522.014	-0.03
522.362	-0.03
522.709	-0.04
523.057	-0.04
523.404	-0.02
523.752	-0.04
524.099	-0.03
524.446	-0.02
524.794	-0.04
525.141	-0.02
525.488	-0.04
525.835	-0.02
526.182	-0.03
526.529	-0.01
526.876	-0.03
527.223	-0.03
527.57	-0.01
527.917	-0.03
528.264	-0.03
528.611	-0.03
528.958	-0.03
529.304	-0.03
529.651	-0.04
529.998	-0.03
530.344	-0.05
530.691	-0.03
531.037	-0.04
531.384	-0.03
531.73	-0.03
532.076	-0.04
532.423	-0.04
532.769	-0.02
533.115	-0.02
533.461	-0.04
533.807	-0.04
534.154	-0.02
534.5	-0.01
534.846	-0.01
535.192	-0.02
535.537	-0.03
535.883	-0.03
536.229	-0.03
536.575	-0.02
536.921	-0.03
537.266	-0.03
537.612	-0.03
537.957	-0.01
538.303	-0.03
538.649	-0.02
538.994	-0.03
539.339	-0.02
539.685	-0.02
540.03	-0.03
540.375	-0.04
540.721	-0.04
541.066	-0.03
541.411	-0.02
541.756	-0.03
542.101	-0.02
542.446	-0.02
542.791	-0.02
543.136	-0.02
543.481	-0.03
543.825	-0.04
544.17	-0.05
544.515	-0.03
544.86	-0.04
545.204	-0.03
545.549	-0.03
545.893	-0.03
546.238	-0.02
546.582	-0.03
546.927	-0.04
547.271	-0.03
547.615	-0.04
547.96	-0.03
548.304	-0.02
548.648	-0.04
548.992	-0.03
549.336	-0.03
549.68	-0.02
550.024	-0.04
550.368	-0.03
550.712	-0.03
551.056	-0.03
551.4	-0.03
551.743	-0.03
552.087	-0.02
552.431	-0.02
552.774	-0.01
553.118	-0.03
553.462	-0.03
553.805	-0.02
554.148	-0.03
554.492	-0.01
554.835	-0.04
555.178	-0.02
555.522	-0.04
555.865	-0.02
556.208	-0.03
556.551	-0.05
556.894	-0.04
557.237	-0.02
557.58	-0.03
557.923	-0.04
558.266	-0.03
558.609	-0.02
558.952	-0.04
559.294	-0.03
559.637	-0.05
559.98	-0.04
560.322	-0.02
560.665	-0.04
561.007	-0.02
561.35	-0.04
561.692	-0.02
562.034	-0.04
562.377	-0.02
562.719	-0.03
563.061	-0.03
563.403	-0.03
563.745	-0.03
564.088	-0.02
564.43	-0.03
564.772	-0.03
565.113	-0.02
565.455	-0.03
565.797	-0.03
566.139	-0.04
566.481	-0.03
566.822	-0.03
567.164	-0.03
567.506	-0.03
567.847	-0.04
568.189	-0.03
568.53	-0.03
568.872	-0.03
569.213	-0.03
569.554	-0.04
569.895	-0.03
570.237	-0.04
570.578	-0.03
570.919	-0.05
571.26	-0.03
571.601	-0.02
571.942	-0.02
572.283	-0.03
572.624	-0.02
572.965	-0.02
573.306	-0.03
573.646	-0.02
573.987	-0.04
574.328	-0.03
574.668	-0.04
575.009	-0.04
575.349	-0.04
575.69	-0.03
576.03	-0.03
576.37	-0.04
576.711	-0.04
577.051	-0.02
577.391	-0.02
577.731	-0.03
578.072	-0.02
578.412	-0.03
578.752	-0.03
579.092	-0.02
579.431	-0.02
579.771	-0.02
580.111	-0.02
580.451	-0.03
580.791	-0.03
581.13	-0.02
581.47	-0.03
581.81	-0.03
582.149	-0.03
582.489	-0.03
582.828	-0.02
583.167	-0.02
583.507	-0.01
583.846	-0.03
584.185	-0.02
584.525	-0.02
584.864	-0.03
585.203	-0.03
585.542	-0.02
585.881	-0.02
586.22	-0.02
586.559	-0.03
586.898	-0.02
587.236	-0.03
587.575	-0.02
587.914	-0.03
588.252	-0.03
588.591	-0.02
588.93	-0.03
589.268	-0.04
589.607	-0.03
589.945	-0.02
590.283	-0.02
590.622	-0.03
590.96	-0.02
591.298	-0.03
591.636	-0.03
591.974	-0.03
592.313	-0.03
592.651	-0.03
592.989	-0.04
593.326	-0.03
593.664	-0.03
594.002	-0.04
594.34	-0.03
594.678	-0.04
595.015	-0.03
595.353	-0.03
595.691	-0.03
596.028	-0.02
596.366	-0.04
596.703	-0.03
597.04	-0.03
597.378	-0.02
597.715	-0.04
598.052	-0.04
598.389	-0.04
598.726	-0.04
599.064	-0.04
599.401	-0.04
599.738	-0.04
600.074	-0.04
600.411	-0.04
600.748	-0.04
601.085	-0.03
601.422	-0.03
601.758	-0.02
602.095	-0.03
602.432	-0.02
602.768	-0.02
603.105	-0.02
603.441	-0.03
603.777	-0.02
604.114	-0.03
604.45	-0.03
604.786	-0.03
605.122	-0.03
605.459	-0.04
605.795	-0.02
606.131	-0.02
606.467	-0.02
606.803	-0.03
607.139	-0.03
607.474	-0.03
607.81	-0.02
608.146	-0.04
608.482	-0.03
608.817	-0.03
609.153	-0.03
609.488	-0.04
609.824	-0.03
610.159	-0.03
610.495	-0.04
610.83	-0.03
611.165	-0.04
611.5	-0.04
611.836	-0.04
612.171	-0.04
612.506	-0.04
612.841	-0.04
613.176	-0.04
613.511	-0.04
613.845	-0.05
614.18	-0.03
614.515	-0.04
614.85	-0.04
615.184	-0.04
615.519	-0.03
615.854	-0.04
616.188	-0.03
616.523	-0.04
616.857	-0.02
617.191	-0.03
617.526	-0.02
617.86	-0.04
618.194	-0.04
618.528	-0.04
618.862	-0.05
619.196	-0.04
619.53	-0.03
619.864	-0.05
620.198	-0.03
620.532	-0.04
620.866	-0.05
621.2	-0.04
621.533	-0.04
621.867	-0.04
622.201	-0.03
622.534	-0.05
622.868	-0.03
623.201	-0.04
623.534	-0.03
623.868	-0.02
624.201	-0.03
624.534	-0.03
624.868	-0.03
625.201	-0.03
625.534	-0.02
625.867	-0.04
626.2	-0.04
626.533	-0.04
626.865	-0.04
627.198	-0.04
627.531	-0.05
627.864	-0.05
628.196	-0.06
628.529	-0.04
628.862	-0.04
629.194	-0.03
629.527	-0.04
629.859	-0.04
630.191	-0.03
630.524	-0.03
630.856	-0.04
631.188	-0.04
631.52	-0.04
631.852	-0.04
632.184	-0.04
632.516	-0.04
632.848	-0.06
633.18	-0.05
633.512	-0.05
633.844	-0.04
634.175	-0.04
634.507	-0.04
634.839	-0.05
635.17	-0.04
635.502	-0.03
635.833	-0.04
636.165	-0.05
636.496	-0.04
636.827	-0.05
637.159	-0.05
637.49	-0.04
637.821	-0.05
638.152	-0.03
638.483	-0.03
638.814	-0.04
639.145	-0.05
639.476	-0.05
639.807	-0.04
640.137	-0.04
640.468	-0.04
640.799	-0.05
641.129	-0.05
641.46	-0.05
641.791	-0.05
642.121	-0.07
642.451	-0.05
642.782	-0.05
643.112	-0.05
643.442	-0.05
643.773	-0.05
644.103	-0.06
644.433	-0.04
644.763	-0.03
645.093	-0.03
645.423	-0.04
645.753	-0.04
646.082	-0.04
646.412	-0.03
646.742	-0.05
647.072	-0.04
647.401	-0.03
647.731	-0.04
648.06	-0.03
648.39	-0.04
648.719	-0.04
649.048	-0.04
649.378	-0.03
649.707	-0.04
650.036	-0.04
650.365	-0.04
650.694	-0.04
651.023	-0.04
651.352	-0.04
651.681	-0.04
652.01	-0.04
652.339	-0.04
652.668	-0.03
652.996	-0.03
653.325	-0.04
653.654	-0.04
653.982	-0.03
654.311	-0.05
654.639	-0.04
654.967	-0.03
655.296	-0.04
655.624	-0.05
655.952	-0.07
656.28	-0.06
656.609	-0.04
656.937	-0.04
657.265	-0.02
657.593	-0.02
657.92	-0
658.248	-0.01
658.576	-0.02
658.904	-0.03
659.231	-0.03
659.559	-0.03
659.887	-0.02
660.214	-0.03
660.542	-0.04
660.869	-0.04
661.196	-0.04
661.524	-0.05
661.851	-0.03
662.178	-0.03
662.505	-0.04
662.832	-0.04
663.159	-0.05
663.486	-0.04
663.813	-0.04
664.14	-0.04
664.467	-0.04
664.794	-0.04
665.12	-0.03
665.447	-0.04
665.774	-0.04
666.1	-0.04
666.427	-0.06
666.753	-0.03
667.079	-0.05
667.406	-0.04
667.732	-0.04
668.058	-0.03
668.384	-0.04
668.71	-0.04
669.036	-0.04
669.362	-0.04
669.688	-0.05
670.014	-0.04
670.34	-0.05
670.666	-0.05
670.991	-0.04
671.317	-0.04
671.643	-0.06
671.968	-0.05
672.294	-0.06
672.619	-0.05
672.945	-0.05
673.27	-0.05
673.595	-0.05
673.92	-0.04
674.246	-0.05
674.571	-0.05
674.896	-0.05
675.221	-0.05
675.546	-0.05
675.87	-0.05
676.195	-0.05
676.52	-0.05
676.845	-0.05
677.169	-0.04
677.494	-0.03
677.819	-0.04
678.143	-0.03
678.468	-0.03
678.792	-0.04
679.116	-0.04
679.44	-0.03
679.765	-0.03
680.089	-0.05
680.413	-0.04
680.737	-0.04
681.061	-0.04
681.385	-0.03
681.709	-0.03
682.033	-0.05
682.356	-0.04
682.68	-0.04
683.004	-0.05
683.327	-0.05
683.651	-0.05
683.974	-0.05
684.298	-0.06
684.621	-0.06
684.944	-0.06
685.268	-0.05
685.591	-0.04
685.914	-0.04
686.237	-0.05
686.56	-0.04
686.883	-0.05
687.206	-0.05
687.529	-0.06
687.852	-0.05
688.175	-0.04
688.497	-0.05
688.82	-0.06
689.142	-0.04
689.465	-0.06
689.787	-0.05
690.11	-0.06
690.432	-0.06
690.755	-0.08
691.077	-0.07
691.399	-0.07
691.721	-0.06
692.043	-0.06
692.365	-0.05
692.687	-0.06
693.009	-0.06
693.331	-0.05
693.653	-0.04
693.974	-0.06
694.296	-0.06
694.618	-0.05
694.939	-0.06
695.261	-0.05
695.582	-0.05
695.904	-0.05
696.225	-0.06
696.546	-0.05
696.868	-0.06
697.189	-0.05
697.51	-0.06
697.831	-0.05
698.152	-0.04
698.473	-0.05
698.794	-0.04
699.114	-0.05
699.435	-0.06
699.756	-0.05
700.077	-0.07
700.397	-0.05
700.718	-0.06
701.038	-0.05
701.359	-0.05
701.679	-0.05
701.999	-0.04
702.32	-0.06
702.64	-0.06
702.96	-0.06
703.28	-0.07
703.6	-0.05
703.92	-0.06
704.24	-0.06
704.56	-0.06
704.879	-0.05
705.199	-0.06
705.519	-0.06
705.838	-0.06
706.158	-0.05
706.478	-0.06
706.797	-0.05
707.116	-0.05
707.436	-0.03
707.755	-0.04
708.074	-0.05
708.393	-0.03
708.712	-0.03
709.031	-0.04
709.35	-0.04
709.669	-0.03
709.988	-0.04
710.307	-0.03
710.626	-0.04
710.944	-0.04
711.263	-0.06
711.582	-0.07
711.9	-0.05
712.219	-0.05
712.537	-0.06
712.855	-0.06
713.174	-0.05
713.492	-0.06
713.81	-0.06
714.128	-0.05
714.446	-0.06
714.764	-0.06
715.082	-0.05
715.4	-0.05
715.718	-0.04
716.035	-0.04
716.353	-0.04
716.671	-0.04
716.988	-0.06
717.306	-0.04
717.623	-0.04
717.941	-0.05
718.258	-0.05
718.575	-0.05
718.893	-0.06
719.21	-0.04
719.527	-0.06
719.844	-0.06
720.161	-0.06
720.478	-0.06
720.795	-0.06
721.112	-0.06
721.428	-0.06
721.745	-0.06
722.062	-0.05
722.378	-0.07
722.695	-0.05
723.011	-0.06
723.328	-0.05
723.644	-0.06
723.96	-0.05
724.276	-0.05
724.593	-0.06
724.909	-0.04
725.225	-0.06
725.541	-0.06
725.857	-0.05
726.173	-0.05
726.488	-0.06
726.804	-0.06
727.12	-0.05
727.435	-0.05
727.751	-0.06
728.067	-0.05
728.382	-0.05
728.697	-0.05
729.013	-0.06
729.328	-0.05
729.643	-0.05
729.958	-0.06
730.273	-0.05
730.588	-0.05
730.903	-0.05
731.218	-0.05
731.533	-0.04
731.848	-0.04
732.163	-0.05
732.477	-0.05
732.792	-0.04
733.107	-0.04
733.421	-0.04
733.736	-0.04
734.05	-0.04
734.364	-0.03
734.678	-0.04
734.993	-0.03
735.307	-0.04
735.621	-0.05
735.935	-0.05
736.249	-0.04
736.563	-0.04
736.877	-0.04
737.19	-0.03
737.504	-0.04
737.818	-0.04
738.131	-0.03
738.445	-0.04
738.758	-0.03
739.072	-0.04
739.385	-0.04
739.698	-0.03
740.012	-0.03
740.325	-0.03
740.638	-0.04
740.951	-0.04
741.264	-0.04
741.577	-0.04
741.89	-0.05
742.203	-0.04
742.515	-0.05
742.828	-0.03
743.141	-0.03
743.453	-0.04
743.766	-0.04
744.078	-0.05
744.391	-0.05
744.703	-0.04
745.015	-0.03
745.327	-0.02
745.639	-0.03
745.952	-0.03
746.264	-0.04
746.575	-0.04
746.887	-0.04
747.199	-0.05
747.511	-0.04
747.823	-0.05
748.134	-0.05
748.446	-0.05
748.757	-0.05
749.069	-0.06
749.38	-0.05
749.692	-0.05
750.003	-0.05
750.314	-0.06
750.625	-0.05
750.936	-0.05
751.248	-0.04
751.559	-0.06
751.869	-0.06
752.18	-0.04
752.491	-0.06
752.802	-0.05
753.112	-0.05
753.423	-0.04
753.734	-0.03
754.044	-0.05
754.355	-0.03
754.665	-0.05
754.975	-0.04
755.285	-0.04
755.596	-0.03
755.906	-0.03
756.216	-0.03
756.526	-0.02
756.836	-0.01
757.146	-0.02
757.455	-0.02
757.765	-0.01
758.075	-0.01
758.385	-0.01
758.694	-0
759.004	0
759.313	-0.01
759.622	-0
759.932	-0.01
760.241	-0.01
760.55	-0
760.859	-0
761.168	-0.03
761.477	-0.03
761.786	-0.04
762.095	-0.03
762.404	-0.04
762.713	-0.04
763.021	-0.03
763.33	-0.04
763.639	-0.03
763.947	-0.03
764.256	-0.04
764.564	-0.02
764.872	-0.02
765.181	-0.02
765.489	-0.01
765.797	-0.01
766.105	-0.02
766.413	-0.03
766.721	-0.03
767.029	-0.03
767.337	-0.01
767.644	-0.03
767.952	-0.03
768.26	-0.02
768.567	-0.03
768.875	-0.02
769.182	-0.04
769.49	-0.04
769.797	-0.01
770.104	-0.04
770.411	-0.02
770.718	-0.02
771.026	-0.03
771.333	-0.01
771.639	-0.01
771.946	-0.02
772.253	-0.03
772.56	-0.03
772.867	-0.04
773.173	-0.04
773.48	-0.03
773.786	-0.04
774.093	-0.03
774.399	-0.02
774.705	-0.03
775.012	-0.05
775.318	-0.02
775.624	-0.04
775.93	-0.03
776.236	-0.03
776.542	-0.03
776.848	-0.04
777.154	-0.03
777.459	-0.04
777.765	-0.03
778.071	-0.03
778.376	-0.03
778.682	-0.02
778.987	-0.03
779.292	-0.02
779.598	-0.04
779.903	-0.02
780.208	-0.03
780.513	-0.03
780.818	-0.02
781.123	-0.01
781.428	-0.03
781.733	-0.03
782.038	-0.03
782.343	-0.01
782.647	-0.01
782.952	-0
783.256	-0.01
783.561	-0.01
783.865	-0.02
784.17	-0.02
784.474	-0.02
784.778	-0.01
785.082	-0
785.386	-0.02
785.69	-0.01
785.994	-0.03
786.298	-0
786.602	-0
786.906	-0
787.209	-0.02
787.513	-0
787.817	0
788.12	0.02
788.424	0.01
788.727	-0
789.03	0.02
789.333	0.02
789.637	0.01
789.94	0.01
790.243	0
790.546	0
790.849	-0.01
791.152	0.01
791.454	0
791.757	0.01
792.06	-0.01
792.362	-0.02
792.665	-0.04
792.967	-0.02
793.27	0.01
793.572	0.01
793.874	-0
794.177	0.02
794.479	0.02
794.781	0.02
795.083	0.04
795.385	0.02
795.687	0.04
795.989	0.01
796.29	0.03
796.592	0.03
796.894	0.02
797.195	0.02
797.497	0.03
797.798	0.01
798.1	0.02
798.401	0.03
798.702	0.03
799.003	0.01
799.304	0.01
799.605	0.02
799.906	0.02
800.207	0.03
800.508	0.02
800.809	0.05
801.11	0.04
801.41	0.02
801.711	0.02
802.011	0.06
802.312	0.04
802.612	0.03
802.913	0.05
803.213	0.05
803.513	0.07
803.813	0.03
804.113	0.03
804.413	0.07
804.713	0.03
805.013	0.04
805.313	0.06
805.613	0.08
805.912	0.09
806.212	0.05
806.511	0.02
806.811	0.03
807.11	0.02
807.41	0.08
807.709	0.06
808.008	0.02
808.307	0.02
808.606	0.07
808.905	0.03
809.204	0.09
809.503	0.07
809.802	0.09
810.101	0.1
810.399	0.01
810.698	0.04
810.997	0.04
811.295	0.03
811.593	0.05
811.892	0.04
812.19	0.12
812.488	0.04
812.786	0.06
813.084	0.07
813.383	-0.02
813.68	0.08
813.978	0.07
814.276	0.15
814.574	0.1
814.872	0.07
815.169	0.08
815.467	0.08
815.764	0.04
816.062	0.01
816.359	0.12
816.656	0.05
816.954	0.05
817.251	0.05
817.548	0.04
817.845	0.11
818.142	0.05
818.439	0.04
818.735	-0.02
819.032	0.11
819.329	0.01
819.626	0.05
819.922	-0.04
820.219	0.08
820.515	0.13
820.811	0.12
821.108	0.05
821.404	0.08
821.7	0.02
821.996	0.04
822.292	0.05
822.588	-0
822.884	0.17
823.18	0.03
823.475	0.06
823.771	0.08
824.067	0.13
824.362	0.11
824.658	0.05
824.953	-0
825.249	0.14
825.544	0.08
825.839	0.07
826.134	-0.02
826.429	0.07
826.724	0.06
827.019	-0.04
827.314	-0.1
827.609	0.07
827.904	-0.01
828.198	0.07
828.493	0.05
828.787	0.06
829.082	0.11
829.376	0.1
829.671	0.03
829.965	0.03
830.259	0.01
830.553	0.04
830.847	0.1
831.141	0.01
831.435	0.05
831.729	0.08
832.023	0.04
832.317	0.06
832.61	0.03
832.904	0.08
833.197	0.1
833.491	-0
833.784	-0.05
834.077	-0.02
834.371	0.02
834.664	0.06
834.957	0.04
835.25	0.16
835.543	0.01
835.836	0.04
836.129	0.04
836.421	0.01
836.714	0.04
837.007	0.15
837.299	0.1
837.592	-0.01
837.884	0.02
838.177	0.04
838.469	-0.15
838.761	0.04
839.053	0.07
839.345	0.11
839.637	-0.05
839.929	-0
840.221	-0.02
840.513	0.07
840.805	-0.01
841.096	0.04
841.388	0.07
841.68	-0.06
841.971	0.16
842.262	0.06
842.554	0.11
842.845	0.05
843.136	-0.07
843.427	-0.22
843.718	0.11
844.009	-0.01
844.3	-0.1
844.591	-0.04
844.882	-0.01
845.173	0.17
845.463	-0.05
845.754	0.06
846.044	0.1
846.335	-0.01
846.625	0.3
846.915	-0.07
847.206	0.09
847.496	-0.07
847.786	-0.22
848.076	-0.28
848.366	-0.02
848.656	-0.03
848.945	0.25
849.235	0.07
849.525	-0.2
849.814	0.35
850.104	0.14
850.393	-0.16
850.683	-0.43
850.972	-0.19
851.261	0.5
851.551	-0.21
851.84	-0.1
852.129	0.12
852.418	-0.15
852.707	-0.19
852.995	-0.09
853.284	0.1
853.573	-0.48
853.862	-0.22
854.15	0.1
854.439	-0.2
854.727	-0.48
855.015	-0.23
855.304	-0.15
855.592	-0.16
855.88	-0.35
856.168	-0.07
856.456	0.24
856.744	0.32
857.032	-0
857.32	-0
857.607	-0.09
857.895	-0.09
858.183	-0.6
858.47	-0.07
858.757	-0
859.045	-0
859.332	-0
859.619	0.43
859.907	-0.13
860.194	-0.29
860.481	-0
860.768	-0.75
861.054	-0
861.341	0.25
861.628	-0
861.915	0.15
862.201	-0.19
862.488	-0.49
862.774	-0
863.061	-0.11
863.347	0.37
863.633	0.7
863.919	-0
864.205	-0
864.491	-0.34
864.777	-0
865.063	-0.03
865.349	-0
865.635	0.56
865.92	-0.44
866.206	-0.31
866.492	-0
866.777	-0
867.062	-0.4
867.348	-0
867.633	0.48
867.918	-0
868.203	0.05
868.488	-0
868.773	-0
869.058	0.26
869.343	0.27
869.628	-0.57
869.912	-0.41
870.197	-0.1
870.482	-0
870.766	-0
871.05	-0
871.335	-0.6
871.619	0.16
871.903	-0
872.187	-0.3
872.471	-0
872.755	-0
873.039	0.56
873.323	0.51
873.607	-0
873.89	-0.26
874.174	-0
874.458	1.1
874.741	0.23
875.024	0.68
875.308	0.88
875.591	1.22
875.874	0.29
876.157	-0
876.44	-0
876.723	0.39
877.006	-0
877.289	-0.36
877.572	-0
877.854	0.04
878.137	0.18
878.42	0.05
878.702	-0.32
878.984	-0.06
879.267	1.26
879.549	-0
879.831	-0.19
880.113	-0.48
880.395	0.07
880.677	-0
880.959	-0
