Data from c2t_JH05_50uM_Absorbance_11-14-24-041.txt Node
Date: Thu Dec 21 11:14:24 GMT 2017
User: egn-admin
Spectrometer: OFX00224
Trigger mode: 0
Integration Time (sec): 5.000000E-2
Scans to average: 1
Nonlinearity correction enabled: false
Boxcar width: 0
Storing dark spectrum: false
XAxis mode: Wavelengths
Number of Pixels in Spectrum: 2136
>>>>>Begin Spectral Data<<<<<
154.91	-0
155.289	-0
155.669	0.78
156.048	-0
156.428	-0
156.807	0.21
157.186	-0
157.566	-0
157.945	0.46
158.325	-0.9
158.704	-0
159.083	-0
159.462	-0.11
159.842	-0
160.221	-0
160.6	0.12
160.979	-0.18
161.359	-0
161.738	-0.39
162.117	-0.54
162.496	-0
162.875	-0.92
163.254	-0.16
163.633	-0.36
164.012	-0
164.391	-0.95
164.77	-0
165.149	-0
165.528	0.37
165.907	-1.11
166.286	0.32
166.665	0.43
167.044	-0.04
167.423	-0.46
167.802	-0
168.181	-0
168.559	-0
168.938	-0
169.317	0.12
169.696	0.78
170.074	0.32
170.453	-0
170.832	-0.2
171.21	-0
171.589	-0
171.968	-0.43
172.346	0.18
172.725	-0
173.103	-0
173.482	0.05
173.861	-0
174.239	-0
174.617	-0.06
174.996	-0
175.374	-0.95
175.753	-0.7
176.131	-0
176.51	0.08
176.888	0.03
177.266	-0.09
177.645	0.6
178.023	-0.16
178.401	-0.24
178.779	-0
179.158	0.52
179.536	-0
179.914	-0.6
180.292	-0.07
180.67	0.1
181.048	-0.2
181.427	-0.72
181.805	-0.06
182.183	-0.12
182.561	-0
182.939	0.16
183.317	0.07
183.695	-0.7
184.073	-0
184.451	-0
184.829	0.46
185.206	0.85
185.584	-0.43
185.962	-0
186.34	-0
186.718	-0.19
187.096	0.21
187.473	0.8
187.851	-0.56
188.229	-0.36
188.607	-0.07
188.984	0.15
189.362	0.05
189.74	-0.06
190.117	-0.14
190.495	-0.06
190.872	0.05
191.25	0.48
191.627	-0.25
192.005	-0.08
192.382	-0
192.76	0.43
193.137	-0.03
193.515	-0.22
193.892	0.13
194.269	-0.04
194.647	-0.08
195.024	0.41
195.401	-0.19
195.779	-0.03
196.156	-0.04
196.533	-0.18
196.91	-0.19
197.288	-0
197.665	-1.6
198.042	-0.03
198.419	-0.25
198.796	0.54
199.173	-0.15
199.55	-0.99
199.927	-0.47
200.304	0.08
200.681	-0.67
201.058	0.16
201.435	-0.17
201.812	0.04
202.189	0.02
202.566	-0.03
202.943	0.12
203.32	0.02
203.697	0.15
204.073	-0.06
204.45	-0.18
204.827	-0
205.204	-0.3
205.58	0.02
205.957	-0.24
206.334	0.03
206.71	1.41
207.087	-0.15
207.464	-0.13
207.84	0.08
208.217	0.08
208.593	-0.27
208.97	-0.12
209.346	-0.11
209.723	-0.11
210.099	-0.04
210.476	-0.06
210.852	-0.03
211.228	0.21
211.605	-0.03
211.981	0.09
212.357	-0.02
212.733	0.18
213.11	-0.04
213.486	-0.02
213.862	0.58
214.238	-0.11
214.614	-0.45
214.991	-0.21
215.367	-0.23
215.743	0.3
216.119	0.04
216.495	0.25
216.871	-0.11
217.247	0.14
217.623	-0.03
217.999	-0.14
218.375	0.01
218.751	0.14
219.127	0.14
219.502	-0.05
219.878	-0.11
220.254	-0.19
220.63	-0.05
221.006	-0.02
221.381	-0.11
221.757	0.25
222.133	0.19
222.508	0.06
222.884	0.03
223.26	-0.13
223.635	0.16
224.011	-0.18
224.386	0.1
224.762	-0.01
225.137	0.41
225.513	-0.04
225.888	-0.72
226.264	-0.14
226.639	0.14
227.014	0.32
227.39	0.19
227.765	0.33
228.14	0.04
228.516	-0.05
228.891	-0.18
229.266	0.2
229.641	-0
230.017	0.21
230.392	0.09
230.767	-0.23
231.142	-0.09
231.517	0.32
231.892	0.34
232.267	0.21
232.642	0.78
233.017	0.24
233.392	0.44
233.767	0.14
234.142	-0.03
234.517	0.06
234.892	0.31
235.267	0.33
235.641	0.38
236.016	-0.06
236.391	-0.11
236.766	-0.16
237.14	0.04
237.515	0.12
237.89	0.22
238.264	0.54
238.639	-0.13
239.014	0.08
239.388	0.19
239.763	0.1
240.137	-0.04
240.512	-0.08
240.886	0.35
241.261	-0.01
241.635	-0
242.009	0.07
242.384	-0.12
242.758	-0.04
243.132	0.04
243.507	-0.11
243.881	0.59
244.255	0.19
244.629	-0.04
245.004	0.36
245.378	0.13
245.752	0.38
246.126	-0.18
246.5	-0
246.874	-0
247.248	0.43
247.622	-0.08
247.996	0.14
248.37	0.18
248.744	0.43
249.118	0.06
249.492	-0
249.866	-0
250.24	0.05
250.613	-0.02
250.987	0.27
251.361	0.11
251.735	0.04
252.108	0.29
252.482	0.25
252.856	0.34
253.229	0.09
253.603	0.01
253.977	0.29
254.35	0.11
254.724	0.19
255.097	0.45
255.471	0.26
255.844	0.16
256.218	0.24
256.591	0.27
256.964	0.23
257.338	0.26
257.711	0.12
258.084	0.24
258.458	0.28
258.831	0.2
259.204	0.4
259.577	0.22
259.95	0.21
260.323	0.31
260.697	0.18
261.07	0.24
261.443	0.29
261.816	0.31
262.189	0.2
262.562	0.25
262.935	0.26
263.308	0.25
263.68	0.21
264.053	0.25
264.426	0.31
264.799	0.27
265.172	0.3
265.545	0.22
265.917	0.22
266.29	0.19
266.663	0.26
267.035	0.26
267.408	0.24
267.781	0.22
268.153	0.2
268.526	0.19
268.898	0.16
269.271	0.2
269.643	0.2
270.016	0.21
270.388	0.22
270.76	0.18
271.133	0.17
271.505	0.16
271.877	0.18
272.25	0.2
272.622	0.18
272.994	0.18
273.366	0.16
273.739	0.2
274.111	0.18
274.483	0.17
274.855	0.17
275.227	0.18
275.599	0.18
275.971	0.16
276.343	0.16
276.715	0.15
277.087	0.18
277.459	0.17
277.831	0.17
278.203	0.17
278.574	0.18
278.946	0.18
279.318	0.17
279.69	0.18
280.061	0.17
280.433	0.18
280.805	0.17
281.176	0.19
281.548	0.17
281.92	0.18
282.291	0.18
282.663	0.19
283.034	0.18
283.406	0.19
283.777	0.19
284.148	0.18
284.52	0.2
284.891	0.21
285.262	0.19
285.634	0.21
286.005	0.22
286.376	0.21
286.747	0.22
287.119	0.23
287.49	0.23
287.861	0.23
288.232	0.23
288.603	0.24
288.974	0.23
289.345	0.24
289.716	0.25
290.087	0.24
290.458	0.24
290.829	0.24
291.2	0.26
291.571	0.26
291.941	0.26
292.312	0.26
292.683	0.26
293.054	0.25
293.424	0.26
293.795	0.28
294.166	0.26
294.536	0.27
294.907	0.28
295.277	0.27
295.648	0.28
296.018	0.29
296.389	0.28
296.759	0.28
297.13	0.28
297.5	0.29
297.871	0.28
298.241	0.29
298.611	0.3
298.981	0.29
299.352	0.31
299.722	0.3
300.092	0.3
300.462	0.31
300.832	0.31
301.202	0.31
301.573	0.32
301.943	0.32
302.313	0.34
302.683	0.33
303.053	0.33
303.422	0.34
303.792	0.33
304.162	0.35
304.532	0.35
304.902	0.34
305.272	0.35
305.641	0.36
306.011	0.36
306.381	0.36
306.75	0.36
307.12	0.37
307.49	0.37
307.859	0.37
308.229	0.36
308.598	0.38
308.968	0.38
309.337	0.37
309.707	0.37
310.076	0.38
310.445	0.38
310.815	0.38
311.184	0.38
311.553	0.39
311.923	0.4
312.292	0.4
312.661	0.4
313.03	0.4
313.399	0.39
313.768	0.41
314.137	0.4
314.506	0.42
314.875	0.41
315.244	0.43
315.613	0.41
315.982	0.42
316.351	0.42
316.72	0.42
317.089	0.43
317.458	0.42
317.826	0.43
318.195	0.44
318.564	0.44
318.933	0.44
319.301	0.43
319.67	0.45
320.038	0.45
320.407	0.44
320.775	0.44
321.144	0.46
321.512	0.46
321.881	0.44
322.249	0.46
322.618	0.46
322.986	0.46
323.354	0.45
323.723	0.47
324.091	0.47
324.459	0.46
324.827	0.46
325.195	0.47
325.564	0.47
325.932	0.47
326.3	0.47
326.668	0.47
327.036	0.47
327.404	0.47
327.772	0.46
328.14	0.47
328.508	0.48
328.875	0.48
329.243	0.51
329.611	0.5
329.979	0.5
330.346	0.51
330.714	0.48
331.082	0.48
331.449	0.48
331.817	0.48
332.185	0.49
332.552	0.49
332.92	0.49
333.287	0.5
333.655	0.5
334.022	0.52
334.389	0.5
334.757	0.5
335.124	0.51
335.491	0.5
335.859	0.51
336.226	0.5
336.593	0.5
336.96	0.51
337.327	0.5
337.695	0.5
338.062	0.51
338.429	0.51
338.796	0.51
339.163	0.51
339.53	0.51
339.897	0.5
340.263	0.51
340.63	0.52
340.997	0.5
341.364	0.51
341.731	0.51
342.097	0.51
342.464	0.49
342.831	0.52
343.197	0.5
343.564	0.51
343.931	0.5
344.297	0.5
344.664	0.5
345.03	0.49
345.396	0.5
345.763	0.49
346.129	0.49
346.496	0.51
346.862	0.5
347.228	0.5
347.594	0.51
347.961	0.49
348.327	0.48
348.693	0.49
349.059	0.49
349.425	0.5
349.791	0.5
350.157	0.5
350.523	0.49
350.889	0.49
351.255	0.5
351.621	0.49
351.987	0.48
352.353	0.49
352.719	0.49
353.084	0.49
353.45	0.49
353.816	0.48
354.181	0.49
354.547	0.48
354.913	0.47
355.278	0.46
355.644	0.47
356.009	0.47
356.375	0.46
356.74	0.45
357.106	0.46
357.471	0.46
357.836	0.44
358.202	0.45
358.567	0.44
358.932	0.45
359.297	0.45
359.663	0.46
360.028	0.44
360.393	0.44
360.758	0.43
361.123	0.42
361.488	0.43
361.853	0.43
362.218	0.43
362.583	0.41
362.948	0.41
363.312	0.42
363.677	0.4
364.042	0.42
364.407	0.41
364.772	0.4
365.136	0.4
365.501	0.41
365.865	0.39
366.23	0.38
366.595	0.4
366.959	0.4
367.324	0.39
367.688	0.39
368.052	0.37
368.417	0.37
368.781	0.38
369.145	0.37
369.51	0.35
369.874	0.36
370.238	0.36
370.602	0.35
370.967	0.34
371.331	0.36
371.695	0.36
372.059	0.34
372.423	0.34
372.787	0.35
373.151	0.33
373.515	0.33
373.878	0.32
374.242	0.33
374.606	0.32
374.97	0.32
375.334	0.31
375.697	0.31
376.061	0.3
376.425	0.31
376.788	0.31
377.152	0.3
377.515	0.3
377.879	0.29
378.242	0.29
378.606	0.28
378.969	0.29
379.333	0.27
379.696	0.28
380.059	0.27
380.422	0.27
380.786	0.26
381.149	0.26
381.512	0.25
381.875	0.24
382.238	0.24
382.601	0.24
382.964	0.23
383.327	0.22
383.69	0.23
384.053	0.22
384.416	0.22
384.779	0.22
385.142	0.21
385.504	0.21
385.867	0.21
386.23	0.21
386.593	0.2
386.955	0.21
387.318	0.2
387.68	0.19
388.043	0.18
388.405	0.2
388.768	0.19
389.13	0.17
389.493	0.18
389.855	0.18
390.217	0.19
390.58	0.18
390.942	0.17
391.304	0.17
391.666	0.17
392.028	0.17
392.391	0.17
392.753	0.16
393.115	0.17
393.477	0.16
393.839	0.16
394.201	0.16
394.563	0.17
394.924	0.15
395.286	0.17
395.648	0.14
396.01	0.15
396.371	0.16
396.733	0.15
397.095	0.17
397.456	0.16
397.818	0.15
398.18	0.15
398.541	0.15
398.903	0.15
399.264	0.14
399.625	0.14
399.987	0.14
400.348	0.15
400.709	0.15
401.071	0.15
401.432	0.15
401.793	0.14
402.154	0.14
402.515	0.14
402.876	0.14
403.238	0.14
403.599	0.14
403.96	0.15
404.32	0.15
404.681	0.15
405.042	0.16
405.403	0.14
405.764	0.15
406.125	0.15
406.485	0.15
406.846	0.16
407.207	0.15
407.567	0.15
407.928	0.16
408.288	0.15
408.649	0.16
409.009	0.14
409.37	0.14
409.73	0.15
410.091	0.13
410.451	0.13
410.811	0.14
411.171	0.14
411.532	0.14
411.892	0.13
412.252	0.14
412.612	0.13
412.972	0.14
413.332	0.13
413.692	0.14
414.052	0.15
414.412	0.16
414.772	0.16
415.132	0.15
415.492	0.16
415.851	0.15
416.211	0.15
416.571	0.16
416.931	0.16
417.29	0.16
417.65	0.14
418.009	0.15
418.369	0.16
418.728	0.15
419.088	0.16
419.447	0.15
419.807	0.14
420.166	0.15
420.525	0.16
420.884	0.15
421.244	0.16
421.603	0.16
421.962	0.14
422.321	0.15
422.68	0.16
423.039	0.16
423.398	0.15
423.757	0.15
424.116	0.15
424.475	0.16
424.834	0.16
425.193	0.15
425.551	0.14
425.91	0.15
426.269	0.15
426.628	0.15
426.986	0.14
427.345	0.16
427.703	0.16
428.062	0.16
428.42	0.16
428.779	0.16
429.137	0.16
429.496	0.16
429.854	0.16
430.212	0.17
430.57	0.16
430.929	0.15
431.287	0.15
431.645	0.16
432.003	0.16
432.361	0.15
432.719	0.17
433.077	0.14
433.435	0.15
433.793	0.15
434.151	0.14
434.509	0.14
434.866	0.16
435.224	0.15
435.582	0.15
435.94	0.16
436.297	0.14
436.655	0.14
437.012	0.15
437.37	0.15
437.727	0.15
438.085	0.16
438.442	0.13
438.8	0.15
439.157	0.13
439.514	0.15
439.872	0.14
440.229	0.15
440.586	0.16
440.943	0.14
441.3	0.13
441.657	0.13
442.014	0.13
442.371	0.15
442.728	0.14
443.085	0.14
443.442	0.12
443.799	0.13
444.156	0.14
444.513	0.13
444.869	0.13
445.226	0.15
445.583	0.14
445.939	0.14
446.296	0.12
446.652	0.13
447.009	0.13
447.365	0.13
447.722	0.14
448.078	0.13
448.434	0.13
448.791	0.14
449.147	0.12
449.503	0.12
449.859	0.12
450.215	0.12
450.571	0.12
450.928	0.12
451.284	0.12
451.64	0.13
451.995	0.12
452.351	0.12
452.707	0.11
453.063	0.11
453.419	0.12
453.775	0.1
454.13	0.11
454.486	0.12
454.842	0.12
455.197	0.11
455.553	0.1
455.908	0.11
456.264	0.11
456.619	0.1
456.975	0.1
457.33	0.1
457.685	0.11
458.04	0.1
458.396	0.09
458.751	0.1
459.106	0.1
459.461	0.1
459.816	0.09
460.171	0.09
460.526	0.09
460.881	0.09
461.236	0.09
461.591	0.08
461.946	0.09
462.301	0.09
462.655	0.09
463.01	0.07
463.365	0.08
463.719	0.07
464.074	0.07
464.428	0.07
464.783	0.07
465.137	0.07
465.492	0.06
465.846	0.06
466.201	0.07
466.555	0.07
466.909	0.07
467.263	0.06
467.618	0.06
467.972	0.05
468.326	0.06
468.68	0.06
469.034	0.06
469.388	0.05
469.742	0.05
470.096	0.05
470.45	0.05
470.804	0.04
471.157	0.04
471.511	0.04
471.865	0.05
472.218	0.04
472.572	0.05
472.926	0.04
473.279	0.03
473.633	0.03
473.986	0.04
474.34	0.04
474.693	0.04
475.046	0.03
475.4	0.02
475.753	0.03
476.106	0.03
476.459	0.02
476.812	0.03
477.165	0.03
477.519	0.03
477.872	0.03
478.224	0.02
478.577	0.03
478.93	0.03
479.283	0.03
479.636	0.01
479.989	0.02
480.341	0.01
480.694	0.03
481.047	0.02
481.399	0.03
481.752	0.01
482.104	0.02
482.457	0.03
482.809	0.02
483.162	0.02
483.514	0.01
483.866	0.01
484.219	0.01
484.571	0.01
484.923	0.01
485.275	0.01
485.627	0.01
485.979	0.01
486.331	0.02
486.683	0.01
487.035	0.02
487.387	0.02
487.739	0.02
488.091	0.02
488.443	-0
488.794	0.01
489.146	0
489.498	0.01
489.849	0.01
490.201	-0
490.552	0
490.904	-0
491.255	-0
491.607	0.01
491.958	0.01
492.309	0
492.661	0
493.012	0
493.363	0.01
493.714	-0
494.065	-0
494.416	0.01
494.767	-0
495.118	-0.01
495.469	0.02
495.82	0.01
496.171	0.01
496.522	-0
496.872	0.01
497.223	0
497.574	-0.02
497.924	-0
498.275	0.01
498.626	0.01
498.976	-0.01
499.327	0
499.677	-0.02
500.027	-0
500.378	-0
500.728	-0.02
501.078	-0.01
501.428	-0.03
501.779	-0
502.129	-0.02
502.479	-0.01
502.829	-0.01
503.179	-0.01
503.529	-0.01
503.879	0
504.229	0.01
504.578	-0.02
504.928	0
505.278	-0.02
505.628	-0.01
505.977	-0.01
506.327	-0.01
506.676	-0.01
507.026	-0.03
507.375	-0.02
507.725	-0.03
508.074	-0.01
508.424	-0.02
508.773	-0.03
509.122	-0.02
509.471	-0.02
509.82	-0.01
510.17	-0.01
510.519	-0.02
510.868	-0.02
511.217	-0.01
511.566	-0.02
511.915	-0.01
512.263	-0.02
512.612	-0.01
512.961	-0.01
513.31	-0.01
513.659	-0.02
514.007	-0.01
514.356	-0.03
514.704	-0.02
515.053	-0.01
515.401	-0.02
515.75	-0.03
516.098	-0.03
516.447	-0.01
516.795	-0.03
517.143	-0.04
517.491	-0.03
517.839	-0.04
518.188	-0.03
518.536	-0.01
518.884	-0.03
519.232	-0.04
519.58	-0.03
519.928	-0.01
520.275	-0.03
520.623	-0.01
520.971	-0.03
521.319	-0.01
521.666	-0.03
522.014	-0.03
522.362	-0.03
522.709	-0.03
523.057	-0.03
523.404	-0.02
523.752	-0.02
524.099	-0.03
524.446	-0.01
524.794	-0.05
525.141	-0.03
525.488	-0.02
525.835	-0.02
526.182	-0.03
526.529	-0.02
526.876	-0.04
527.223	-0.03
527.57	-0.03
527.917	-0.03
528.264	-0.02
528.611	-0.04
528.958	-0.03
529.304	-0.03
529.651	-0.04
529.998	-0.03
530.344	-0.04
530.691	-0.03
531.037	-0.04
531.384	-0.03
531.73	-0.03
532.076	-0.03
532.423	-0.04
532.769	-0.02
533.115	-0.03
533.461	-0.03
533.807	-0.04
534.154	-0.02
534.5	-0.02
534.846	-0.02
535.192	-0.03
535.537	-0.03
535.883	-0.04
536.229	-0.03
536.575	-0.02
536.921	-0.04
537.266	-0.04
537.612	-0.03
537.957	-0.02
538.303	-0.03
538.649	-0.03
538.994	-0.03
539.339	-0.03
539.685	-0.03
540.03	-0.04
540.375	-0.04
540.721	-0.03
541.066	-0.03
541.411	-0.03
541.756	-0.02
542.101	-0.02
542.446	-0.02
542.791	-0.03
543.136	-0.03
543.481	-0.04
543.825	-0.04
544.17	-0.03
544.515	-0.02
544.86	-0.03
545.204	-0.04
545.549	-0.03
545.893	-0.05
546.238	-0.03
546.582	-0.04
546.927	-0.04
547.271	-0.03
547.615	-0.03
547.96	-0.03
548.304	-0.03
548.648	-0.02
548.992	-0.03
549.336	-0.04
549.68	-0.04
550.024	-0.04
550.368	-0.03
550.712	-0.04
551.056	-0.02
551.4	-0.02
551.743	-0.03
552.087	-0.01
552.431	-0.03
552.774	-0.02
553.118	-0.04
553.462	-0.02
553.805	-0.03
554.148	-0.03
554.492	-0.03
554.835	-0.03
555.178	-0.03
555.522	-0.04
555.865	-0.03
556.208	-0.03
556.551	-0.04
556.894	-0.04
557.237	-0.03
557.58	-0.03
557.923	-0.04
558.266	-0.03
558.609	-0.02
558.952	-0.03
559.294	-0.02
559.637	-0.04
559.98	-0.04
560.322	-0.03
560.665	-0.04
561.007	-0.02
561.35	-0.04
561.692	-0.02
562.034	-0.03
562.377	-0.02
562.719	-0.04
563.061	-0.03
563.403	-0.03
563.745	-0.04
564.088	-0.03
564.43	-0.03
564.772	-0.04
565.113	-0.03
565.455	-0.03
565.797	-0.03
566.139	-0.04
566.481	-0.02
566.822	-0.03
567.164	-0.03
567.506	-0.02
567.847	-0.02
568.189	-0.03
568.53	-0.03
568.872	-0.03
569.213	-0.02
569.554	-0.03
569.895	-0.02
570.237	-0.03
570.578	-0.04
570.919	-0.04
571.26	-0.03
571.601	-0.03
571.942	-0.03
572.283	-0.03
572.624	-0.03
572.965	-0.03
573.306	-0.03
573.646	-0.03
573.987	-0.03
574.328	-0.04
574.668	-0.03
575.009	-0.04
575.349	-0.03
575.69	-0.03
576.03	-0.03
576.37	-0.03
576.711	-0.04
577.051	-0.03
577.391	-0.03
577.731	-0.04
578.072	-0.03
578.412	-0.03
578.752	-0.03
579.092	-0.03
579.431	-0.02
579.771	-0.03
580.111	-0.01
580.451	-0.03
580.791	-0.03
581.13	-0.02
581.47	-0.03
581.81	-0.02
582.149	-0.04
582.489	-0.04
582.828	-0.02
583.167	-0.03
583.507	-0.02
583.846	-0.03
584.185	-0.03
584.525	-0.03
584.864	-0.03
585.203	-0.04
585.542	-0.02
585.881	-0.03
586.22	-0.03
586.559	-0.03
586.898	-0.03
587.236	-0.03
587.575	-0.03
587.914	-0.04
588.252	-0.03
588.591	-0.04
588.93	-0.03
589.268	-0.03
589.607	-0.02
589.945	-0.02
590.283	-0.03
590.622	-0.03
590.96	-0.03
591.298	-0.04
591.636	-0.03
591.974	-0.03
592.313	-0.03
592.651	-0.03
592.989	-0.04
593.326	-0.04
593.664	-0.03
594.002	-0.04
594.34	-0.03
594.678	-0.04
595.015	-0.03
595.353	-0.02
595.691	-0.03
596.028	-0.03
596.366	-0.05
596.703	-0.04
597.04	-0.04
597.378	-0.03
597.715	-0.04
598.052	-0.05
598.389	-0.05
598.726	-0.04
599.064	-0.04
599.401	-0.04
599.738	-0.03
600.074	-0.04
600.411	-0.04
600.748	-0.04
601.085	-0.03
601.422	-0.03
601.758	-0.03
602.095	-0.02
602.432	-0.03
602.768	-0.03
603.105	-0.03
603.441	-0.03
603.777	-0.02
604.114	-0.04
604.45	-0.03
604.786	-0.02
605.122	-0.03
605.459	-0.04
605.795	-0.03
606.131	-0.02
606.467	-0.02
606.803	-0.02
607.139	-0.03
607.474	-0.03
607.81	-0.03
608.146	-0.04
608.482	-0.03
608.817	-0.03
609.153	-0.03
609.488	-0.05
609.824	-0.04
610.159	-0.05
610.495	-0.04
610.83	-0.03
611.165	-0.03
611.5	-0.04
611.836	-0.05
612.171	-0.04
612.506	-0.05
612.841	-0.04
613.176	-0.05
613.511	-0.03
613.845	-0.04
614.18	-0.04
614.515	-0.04
614.85	-0.04
615.184	-0.03
615.519	-0.03
615.854	-0.03
616.188	-0.03
616.523	-0.04
616.857	-0.04
617.191	-0.03
617.526	-0.03
617.86	-0.03
618.194	-0.04
618.528	-0.04
618.862	-0.05
619.196	-0.04
619.53	-0.04
619.864	-0.04
620.198	-0.02
620.532	-0.03
620.866	-0.04
621.2	-0.03
621.533	-0.04
621.867	-0.03
622.201	-0.02
622.534	-0.04
622.868	-0.02
623.201	-0.03
623.534	-0.03
623.868	-0.03
624.201	-0.04
624.534	-0.03
624.868	-0.03
625.201	-0.02
625.534	-0.03
625.867	-0.03
626.2	-0.04
626.533	-0.03
626.865	-0.04
627.198	-0.04
627.531	-0.05
627.864	-0.04
628.196	-0.04
628.529	-0.04
628.862	-0.04
629.194	-0.03
629.527	-0.04
629.859	-0.04
630.191	-0.03
630.524	-0.04
630.856	-0.05
631.188	-0.05
631.52	-0.05
631.852	-0.04
632.184	-0.04
632.516	-0.04
632.848	-0.05
633.18	-0.05
633.512	-0.05
633.844	-0.05
634.175	-0.05
634.507	-0.04
634.839	-0.05
635.17	-0.04
635.502	-0.04
635.833	-0.03
636.165	-0.04
636.496	-0.04
636.827	-0.05
637.159	-0.04
637.49	-0.04
637.821	-0.06
638.152	-0.04
638.483	-0.03
638.814	-0.04
639.145	-0.06
639.476	-0.04
639.807	-0.04
640.137	-0.06
640.468	-0.04
640.799	-0.04
641.129	-0.05
641.46	-0.05
641.791	-0.05
642.121	-0.07
642.451	-0.05
642.782	-0.06
643.112	-0.06
643.442	-0.06
643.773	-0.05
644.103	-0.05
644.433	-0.03
644.763	-0.03
645.093	-0.04
645.423	-0.04
645.753	-0.04
646.082	-0.06
646.412	-0.04
646.742	-0.05
647.072	-0.05
647.401	-0.04
647.731	-0.05
648.06	-0.03
648.39	-0.04
648.719	-0.03
649.048	-0.04
649.378	-0.04
649.707	-0.04
650.036	-0.05
650.365	-0.04
650.694	-0.04
651.023	-0.04
651.352	-0.03
651.681	-0.04
652.01	-0.04
652.339	-0.02
652.668	-0.04
652.996	-0.03
653.325	-0.05
653.654	-0.04
653.982	-0.05
654.311	-0.04
654.639	-0.04
654.967	-0.03
655.296	-0.04
655.624	-0.06
655.952	-0.07
656.28	-0.07
656.609	-0.05
656.937	-0.05
657.265	-0.03
657.593	-0.02
657.92	-0.01
658.248	-0.02
658.576	-0.03
658.904	-0.02
659.231	-0.03
659.559	-0.03
659.887	-0.04
660.214	-0.04
660.542	-0.04
660.869	-0.03
661.196	-0.04
661.524	-0.05
661.851	-0.04
662.178	-0.04
662.505	-0.05
662.832	-0.05
663.159	-0.05
663.486	-0.04
663.813	-0.04
664.14	-0.04
664.467	-0.03
664.794	-0.03
665.12	-0.04
665.447	-0.04
665.774	-0.04
666.1	-0.05
666.427	-0.07
666.753	-0.03
667.079	-0.05
667.406	-0.03
667.732	-0.05
668.058	-0.03
668.384	-0.04
668.71	-0.04
669.036	-0.04
669.362	-0.04
669.688	-0.05
670.014	-0.04
670.34	-0.04
670.666	-0.05
670.991	-0.04
671.317	-0.05
671.643	-0.06
671.968	-0.05
672.294	-0.06
672.619	-0.06
672.945	-0.06
673.27	-0.04
673.595	-0.05
673.92	-0.06
674.246	-0.06
674.571	-0.05
674.896	-0.05
675.221	-0.06
675.546	-0.06
675.87	-0.06
676.195	-0.06
676.52	-0.05
676.845	-0.05
677.169	-0.04
677.494	-0.03
677.819	-0.04
678.143	-0.03
678.468	-0.04
678.792	-0.05
679.116	-0.04
679.44	-0.03
679.765	-0.04
680.089	-0.05
680.413	-0.05
680.737	-0.04
681.061	-0.05
681.385	-0.03
681.709	-0.04
682.033	-0.05
682.356	-0.05
682.68	-0.04
683.004	-0.05
683.327	-0.05
683.651	-0.05
683.974	-0.05
684.298	-0.06
684.621	-0.05
684.944	-0.05
685.268	-0.06
685.591	-0.04
685.914	-0.04
686.237	-0.05
686.56	-0.05
686.883	-0.05
687.206	-0.04
687.529	-0.04
687.852	-0.05
688.175	-0.05
688.497	-0.05
688.82	-0.05
689.142	-0.06
689.465	-0.07
689.787	-0.06
690.11	-0.06
690.432	-0.07
690.755	-0.07
691.077	-0.06
691.399	-0.08
691.721	-0.07
692.043	-0.06
692.365	-0.05
692.687	-0.05
693.009	-0.05
693.331	-0.06
693.653	-0.06
693.974	-0.05
694.296	-0.06
694.618	-0.07
694.939	-0.06
695.261	-0.06
695.582	-0.05
695.904	-0.06
696.225	-0.07
696.546	-0.05
696.868	-0.05
697.189	-0.06
697.51	-0.05
697.831	-0.05
698.152	-0.04
698.473	-0.05
698.794	-0.04
699.114	-0.06
699.435	-0.06
699.756	-0.05
700.077	-0.06
700.397	-0.06
700.718	-0.06
701.038	-0.04
701.359	-0.05
701.679	-0.05
701.999	-0.04
702.32	-0.05
702.64	-0.05
702.96	-0.05
703.28	-0.06
703.6	-0.05
703.92	-0.06
704.24	-0.06
704.56	-0.06
704.879	-0.06
705.199	-0.06
705.519	-0.06
705.838	-0.07
706.158	-0.06
706.478	-0.05
706.797	-0.06
707.116	-0.05
707.436	-0.05
707.755	-0.05
708.074	-0.05
708.393	-0.05
708.712	-0.04
709.031	-0.05
709.35	-0.04
709.669	-0.05
709.988	-0.04
710.307	-0.04
710.626	-0.05
710.944	-0.04
711.263	-0.06
711.582	-0.05
711.9	-0.06
712.219	-0.05
712.537	-0.05
712.855	-0.05
713.174	-0.05
713.492	-0.05
713.81	-0.06
714.128	-0.05
714.446	-0.06
714.764	-0.05
715.082	-0.05
715.4	-0.05
715.718	-0.04
716.035	-0.04
716.353	-0.04
716.671	-0.05
716.988	-0.05
717.306	-0.05
717.623	-0.05
717.941	-0.05
718.258	-0.05
718.575	-0.05
718.893	-0.05
719.21	-0.05
719.527	-0.05
719.844	-0.06
720.161	-0.05
720.478	-0.06
720.795	-0.07
721.112	-0.06
721.428	-0.06
721.745	-0.07
722.062	-0.06
722.378	-0.07
722.695	-0.05
723.011	-0.07
723.328	-0.05
723.644	-0.06
723.96	-0.05
724.276	-0.06
724.593	-0.05
724.909	-0.05
725.225	-0.06
725.541	-0.06
725.857	-0.05
726.173	-0.06
726.488	-0.06
726.804	-0.07
727.12	-0.06
727.435	-0.05
727.751	-0.06
728.067	-0.05
728.382	-0.05
728.697	-0.05
729.013	-0.05
729.328	-0.05
729.643	-0.05
729.958	-0.06
730.273	-0.05
730.588	-0.05
730.903	-0.04
731.218	-0.05
731.533	-0.04
731.848	-0.04
732.163	-0.04
732.477	-0.05
732.792	-0.03
733.107	-0.04
733.421	-0.03
733.736	-0.04
734.05	-0.04
734.364	-0.03
734.678	-0.04
734.993	-0.04
735.307	-0.04
735.621	-0.04
735.935	-0.03
736.249	-0.04
736.563	-0.03
736.877	-0.03
737.19	-0.04
737.504	-0.03
737.818	-0.03
738.131	-0.03
738.445	-0.03
738.758	-0.04
739.072	-0.05
739.385	-0.03
739.698	-0.03
740.012	-0.04
740.325	-0.03
740.638	-0.03
740.951	-0.05
741.264	-0.05
741.577	-0.03
741.89	-0.05
742.203	-0.04
742.515	-0.04
742.828	-0.04
743.141	-0.04
743.453	-0.04
743.766	-0.05
744.078	-0.05
744.391	-0.06
744.703	-0.05
745.015	-0.04
745.327	-0.03
745.639	-0.03
745.952	-0.04
746.264	-0.04
746.575	-0.04
746.887	-0.04
747.199	-0.05
747.511	-0.04
747.823	-0.04
748.134	-0.05
748.446	-0.06
748.757	-0.05
749.069	-0.06
749.38	-0.06
749.692	-0.06
750.003	-0.06
750.314	-0.07
750.625	-0.04
750.936	-0.05
751.248	-0.04
751.559	-0.06
751.869	-0.05
752.18	-0.05
752.491	-0.06
752.802	-0.06
753.112	-0.06
753.423	-0.05
753.734	-0.04
754.044	-0.06
754.355	-0.04
754.665	-0.05
754.975	-0.04
755.285	-0.04
755.596	-0.03
755.906	-0.02
756.216	-0.03
756.526	-0.02
756.836	-0.02
757.146	-0.02
757.455	-0.01
757.765	-0.03
758.075	-0.01
758.385	-0
758.694	0
759.004	-0.01
759.313	-0
759.622	-0
759.932	-0
760.241	0
760.55	-0.01
760.859	-0.01
761.168	-0.03
761.477	-0.03
761.786	-0.04
762.095	-0.04
762.404	-0.05
762.713	-0.04
763.021	-0.04
763.33	-0.03
763.639	-0.04
763.947	-0.03
764.256	-0.03
764.564	-0.03
764.872	-0.01
765.181	-0.02
765.489	-0.01
765.797	-0.01
766.105	-0.02
766.413	-0.02
766.721	-0.03
767.029	-0.04
767.337	-0.03
767.644	-0.04
767.952	-0.05
768.26	-0.02
768.567	-0.03
768.875	-0.02
769.182	-0.03
769.49	-0.04
769.797	-0.03
770.104	-0.04
770.411	-0.02
770.718	-0.03
771.026	-0.02
771.333	-0.01
771.639	-0.02
771.946	-0.03
772.253	-0.04
772.56	-0.04
772.867	-0.05
773.173	-0.04
773.48	-0.03
773.786	-0.05
774.093	-0.04
774.399	-0.05
774.705	-0.05
775.012	-0.05
775.318	-0.03
775.624	-0.04
775.93	-0.02
776.236	-0.03
776.542	-0.04
776.848	-0.04
777.154	-0.02
777.459	-0.03
777.765	-0.03
778.071	-0.02
778.376	-0.03
778.682	-0.03
778.987	-0.04
779.292	-0.04
779.598	-0.04
779.903	-0.03
780.208	-0.04
780.513	-0.03
780.818	-0.04
781.123	-0.02
781.428	-0.01
781.733	-0.02
782.038	-0.01
782.343	-0.01
782.647	-0
782.952	-0.01
783.256	-0
783.561	-0.01
783.865	-0.03
784.17	-0.02
784.474	-0.01
784.778	-0.01
785.082	-0
785.386	-0.02
785.69	-0.01
785.994	-0.02
786.298	-0
786.602	-0.01
786.906	-0.02
787.209	-0
787.513	0
787.817	-0.02
788.12	0.01
788.424	0.01
788.727	0
789.03	0.01
789.333	0.02
789.637	-0
789.94	0
790.243	0
790.546	0.03
790.849	0.01
791.152	0.01
791.454	0.02
791.757	0.02
792.06	-0.01
792.362	0.01
792.665	-0.03
792.967	0
793.27	0.02
793.572	0
793.874	0.01
794.177	0.01
794.479	0.02
794.781	0.04
795.083	0.03
795.385	0.01
795.687	0.02
795.989	-0.02
796.29	-0
796.592	0.01
796.894	0
797.195	0.04
797.497	0.02
797.798	0.01
798.1	0.01
798.401	0.03
798.702	0.01
799.003	0.01
799.304	0.02
799.605	-0
799.906	0.03
800.207	0.06
800.508	0.03
800.809	0.06
801.11	0.03
801.41	0.03
801.711	0.04
802.011	0.07
802.312	0.01
802.612	0.05
802.913	0.06
803.213	0.06
803.513	0.04
803.813	0.03
804.113	0.02
804.413	0.03
804.713	0.04
805.013	0.02
805.313	0.05
805.613	0.06
805.912	0.03
806.212	0.06
806.511	0.03
806.811	0.03
807.11	0.04
807.41	0.06
807.709	0.02
808.008	0.03
808.307	0.02
808.606	0.08
808.905	-0.01
809.204	0.07
809.503	0.07
809.802	0.08
810.101	0.06
810.399	0.05
810.698	0.03
810.997	0.02
811.295	-0.01
811.593	0.02
811.892	0.03
812.19	0.05
812.488	0.04
812.786	0.04
813.084	0.01
813.383	-0.02
813.68	0.02
813.978	0.06
814.276	0.07
814.574	0.07
814.872	0.07
815.169	0.07
815.467	0.07
815.764	0.04
816.062	0.01
816.359	0.04
816.656	0.03
816.954	0.03
817.251	0.04
817.548	-0.01
817.845	0.06
818.142	0.08
818.439	0.01
818.735	0.03
819.032	0.01
819.329	0.02
819.626	0.04
819.922	0.01
820.219	0.01
820.515	0.07
820.811	0.05
821.108	0.07
821.404	0.05
821.7	0.04
821.996	0.04
822.292	0.08
822.588	0.07
822.884	0.09
823.18	0.07
823.475	0.02
823.771	0.01
824.067	0.01
824.362	0.04
824.658	0.06
824.953	-0
825.249	0.07
825.544	0.03
825.839	0.06
826.134	0.06
826.429	0.04
826.724	-0.03
827.019	0.05
827.314	-0.06
827.609	-0.01
827.904	-0.04
828.198	0.02
828.493	0.03
828.787	0.07
829.082	0.09
829.376	0.14
829.671	0.06
829.965	0.09
830.259	0.11
830.553	-0.06
830.847	0.08
831.141	-0.05
831.435	0
831.729	-0.04
832.023	0.02
832.317	0.09
832.61	0.03
832.904	0.14
833.197	0.08
833.491	0.02
833.784	0.07
834.077	-0.06
834.371	0.03
834.664	0.06
834.957	0.08
835.25	0.06
835.543	0.09
835.836	0.05
836.129	-0.01
836.421	-0.03
836.714	-0.14
837.007	0.04
837.299	0.03
837.592	-0.03
837.884	0.03
838.177	-0.13
838.469	-0.09
838.761	-0.05
839.053	-0.05
839.345	0.19
839.637	-0.03
839.929	-0.04
840.221	-0
840.513	-0.08
840.805	-0.01
841.096	-0.08
841.388	0.15
841.68	-0.29
841.971	0.01
842.262	-0.07
842.554	0.05
842.845	-0.08
843.136	-0.15
843.427	-0.18
843.718	0.05
844.009	-0.01
844.3	-0.1
844.591	-0.09
844.882	-0.1
845.173	-0.03
845.463	0.01
845.754	-0.14
846.044	0.08
846.335	0.06
846.625	0.09
846.915	-0.28
847.206	-0
847.496	-0.29
847.786	-0.25
848.076	-0.48
848.366	-0.12
848.656	-0.11
848.945	0.2
849.235	-0.13
849.525	-0.2
849.814	0.11
850.104	-0.03
850.393	-0.14
850.683	-0.28
850.972	-0.26
851.261	-0.28
851.551	-0.15
851.84	0.15
852.129	-0.22
852.418	-0.26
852.707	-0.42
852.995	0.2
853.284	-0
853.573	-0.56
853.862	-0.19
854.15	0.16
854.439	-0.29
854.727	-0.45
855.015	0.12
855.304	-0.35
855.592	-0.03
855.88	-0.51
856.168	-0.2
856.456	0.07
856.744	0.06
857.032	-0.14
857.32	-0.14
857.607	-0.04
857.895	-0.12
858.183	-0.71
858.47	0.01
858.757	-0
859.045	-0
859.332	-0
859.619	-0.17
859.907	-0.35
860.194	-0.29
860.481	-0.04
860.768	-0
861.054	-0
861.341	-0
861.628	-0
861.915	-0.39
862.201	-0.03
862.488	-0.21
862.774	-0
863.061	-0.12
863.347	-0.04
863.633	-0.17
863.919	-0
864.205	-0
864.491	-0.07
864.777	-0
865.063	-0.23
865.349	-0
865.635	-0.19
865.92	-0.37
866.206	-0.33
866.492	-0
866.777	-0.38
867.062	-0
867.348	-0
867.633	-0.37
867.918	-0
868.203	-0
868.488	-0
868.773	-1.26
869.058	-0.39
869.343	-0.23
869.628	-0
869.912	-0
870.197	-0
870.482	-0
870.766	-1.28
871.05	-0
871.335	-0
871.619	-0.09
871.903	-0.01
872.187	-0.09
872.471	-0
872.755	-0.85
873.039	0.2
873.323	-0.16
873.607	-0
873.89	-0.73
874.174	0.73
874.458	-0.21
874.741	-0
875.024	-0
875.308	-0
875.591	-0.12
875.874	0.08
876.157	-0
876.44	-0
876.723	0.81
877.006	-0
877.289	0.24
877.572	-0
877.854	-0.11
878.137	-0
878.42	-0
878.702	-0
878.984	-0.52
879.267	0.65
879.549	-0
879.831	-0.59
880.113	-0.74
880.395	-0.62
880.677	-1.08
880.959	-0.32
