Data from c2t_JH05_50uM_Absorbance_11-14-15-006.txt Node
Date: Thu Dec 21 11:14:15 GMT 2017
User: egn-admin
Spectrometer: OFX00224
Trigger mode: 0
Integration Time (sec): 5.000000E-2
Scans to average: 1
Nonlinearity correction enabled: false
Boxcar width: 0
Storing dark spectrum: false
XAxis mode: Wavelengths
Number of Pixels in Spectrum: 2136
>>>>>Begin Spectral Data<<<<<
154.91	-0.07
155.289	0.02
155.669	0.01
156.048	0.14
156.428	-1
156.807	0.18
157.186	-0.07
157.566	0.78
157.945	0.25
158.325	-1.13
158.704	-0
159.083	-0
159.462	-0.14
159.842	-1.11
160.221	-0
160.6	-0
160.979	-0.18
161.359	-0
161.738	0.09
162.117	0.15
162.496	0.67
162.875	0.18
163.254	-0.06
163.633	0.03
164.012	-0.24
164.391	-0.6
164.77	0.78
165.149	-0
165.528	-0
165.907	-0
166.286	-0.11
166.665	0.63
167.044	0.32
167.423	-0.04
167.802	-0
168.181	-0.21
168.559	-0
168.938	-0
169.317	0.36
169.696	-0.09
170.074	0.54
170.453	-0
170.832	0.54
171.21	-0.03
171.589	0.09
171.968	-0.39
172.346	-0
172.725	-0
173.103	-0
173.482	0.57
173.861	-0
174.239	0.37
174.617	-0.11
174.996	0.4
175.374	-0.6
175.753	-0.3
176.131	-0
176.51	0.08
176.888	-0.1
177.266	-0.12
177.645	0.82
178.023	-0.16
178.401	-0.51
178.779	0.52
179.158	0.02
179.536	-0.6
179.914	-0.67
180.292	-0.22
180.67	0.42
181.048	0.78
181.427	-0.63
181.805	-0
182.183	-0
182.561	-0
182.939	-0
183.317	-0
183.695	-0
184.073	-0.2
184.451	-0
184.829	-0
185.206	-0.08
185.584	0.37
185.962	-0
186.34	-0.26
186.718	0.06
187.096	-0
187.473	0.38
187.851	-0.6
188.229	0.07
188.607	-0.26
188.984	0.13
189.362	0.02
189.74	0.04
190.117	0.08
190.495	-0.11
190.872	-0.19
191.25	0.39
191.627	-0.31
192.005	0.24
192.382	0.03
192.76	0.16
193.137	0.03
193.515	0.2
193.892	0.59
194.269	-0.14
194.647	-0
195.024	-0
195.401	0.1
195.779	-0.03
196.156	-0.07
196.533	-0.12
196.91	0.2
197.288	-0.75
197.665	-1.65
198.042	-0.1
198.419	0.4
198.796	0.13
199.173	0.52
199.55	0.12
199.927	-0.55
200.304	-0.04
200.681	-0.35
201.058	0.12
201.435	0.05
201.812	-0
202.189	0.49
202.566	0.45
202.943	0.25
203.32	0.19
203.697	0.13
204.073	-0.08
204.45	0.08
204.827	0.03
205.204	0.15
205.58	0.12
205.957	0.34
206.334	0.01
206.71	0.07
207.087	-0.09
207.464	-0.04
207.84	0.28
208.217	0.04
208.593	-0.2
208.97	-0.15
209.346	-0.04
209.723	0.02
210.099	-0.23
210.476	-0.28
210.852	0.29
211.228	-0.23
211.605	0.34
211.981	0.19
212.357	-0.16
212.733	0.17
213.11	-0.22
213.486	-0
213.862	0.66
214.238	0.29
214.614	-0.05
214.991	0.79
215.367	-0.08
215.743	1.15
216.119	-0.1
216.495	-0.03
216.871	-0.09
217.247	0.39
217.623	0.23
217.999	-0.28
218.375	0.04
218.751	0.19
219.127	0.27
219.502	-0.07
219.878	-0.15
220.254	-0.18
220.63	-0
221.006	-0.14
221.381	-0.1
221.757	0.22
222.133	0.42
222.508	0.05
222.884	0.03
223.26	-0.22
223.635	-0.1
224.011	-0.09
224.386	0.09
224.762	0.04
225.137	0.34
225.513	0.11
225.888	-0.4
226.264	0.25
226.639	0.36
227.014	0.2
227.39	0.26
227.765	0.24
228.14	0.1
228.516	0.11
228.891	0.04
229.266	0.05
229.641	-0
230.017	0.19
230.392	-0.01
230.767	-0.08
231.142	-0.25
231.517	-0.02
231.892	0.4
232.267	-0
232.642	0.18
233.017	0.07
233.392	0.33
233.767	0.08
234.142	-0.13
234.517	-0.01
234.892	0.23
235.267	0.6
235.641	-0.08
236.016	0.44
236.391	0.06
236.766	0.02
237.14	0.22
237.515	0.23
237.89	0.17
238.264	0.38
238.639	0.04
239.014	0.06
239.388	0.19
239.763	0.3
240.137	0.39
240.512	0.98
240.886	0.19
241.261	-0.13
241.635	-0.01
242.009	0.37
242.384	0.27
242.758	-0
243.132	-0.1
243.507	0.19
243.881	0.25
244.255	0.13
244.629	-0.18
245.004	0.35
245.378	0.21
245.752	0.33
246.126	0.05
246.5	0.33
246.874	0.06
247.248	0.23
247.622	0.42
247.996	0.05
248.37	0.35
248.744	0.35
249.118	-0.04
249.492	-1.18
249.866	0.33
250.24	0.24
250.613	0.28
250.987	0.12
251.361	0.43
251.735	-0.01
252.108	0.09
252.482	0.01
252.856	0.38
253.229	0.27
253.603	0.16
253.977	0.15
254.35	0.08
254.724	0.23
255.097	0.44
255.471	0.25
255.844	0.26
256.218	0.25
256.591	0.31
256.964	0.16
257.338	0.22
257.711	0.22
258.084	0.27
258.458	0.21
258.831	0.54
259.204	0.27
259.577	0.27
259.95	0.23
260.323	0.32
260.697	0.2
261.07	0.37
261.443	0.31
261.816	0.37
262.189	0.26
262.562	0.22
262.935	0.36
263.308	0.32
263.68	0.25
264.053	0.28
264.426	0.4
264.799	0.32
265.172	0.33
265.545	0.28
265.917	0.27
266.29	0.34
266.663	0.25
267.035	0.28
267.408	0.3
267.781	0.3
268.153	0.28
268.526	0.26
268.898	0.26
269.271	0.23
269.643	0.22
270.016	0.28
270.388	0.25
270.76	0.24
271.133	0.23
271.505	0.21
271.877	0.19
272.25	0.22
272.622	0.2
272.994	0.21
273.366	0.19
273.739	0.21
274.111	0.21
274.483	0.2
274.855	0.2
275.227	0.17
275.599	0.19
275.971	0.2
276.343	0.19
276.715	0.19
277.087	0.2
277.459	0.18
277.831	0.2
278.203	0.19
278.574	0.2
278.946	0.18
279.318	0.2
279.69	0.2
280.061	0.19
280.433	0.19
280.805	0.21
281.176	0.2
281.548	0.21
281.92	0.2
282.291	0.2
282.663	0.22
283.034	0.22
283.406	0.22
283.777	0.22
284.148	0.22
284.52	0.21
284.891	0.22
285.262	0.21
285.634	0.24
286.005	0.24
286.376	0.24
286.747	0.24
287.119	0.24
287.49	0.25
287.861	0.25
288.232	0.26
288.603	0.26
288.974	0.27
289.345	0.26
289.716	0.27
290.087	0.28
290.458	0.28
290.829	0.25
291.2	0.27
291.571	0.27
291.941	0.27
292.312	0.29
292.683	0.27
293.054	0.28
293.424	0.29
293.795	0.3
294.166	0.29
294.536	0.29
294.907	0.31
295.277	0.3
295.648	0.31
296.018	0.31
296.389	0.31
296.759	0.31
297.13	0.3
297.5	0.31
297.871	0.31
298.241	0.32
298.611	0.32
298.981	0.32
299.352	0.32
299.722	0.33
300.092	0.33
300.462	0.34
300.832	0.33
301.202	0.34
301.573	0.36
301.943	0.34
302.313	0.35
302.683	0.35
303.053	0.35
303.422	0.36
303.792	0.35
304.162	0.36
304.532	0.36
304.902	0.35
305.272	0.35
305.641	0.36
306.011	0.37
306.381	0.37
306.75	0.36
307.12	0.38
307.49	0.37
307.859	0.37
308.229	0.38
308.598	0.38
308.968	0.37
309.337	0.37
309.707	0.38
310.076	0.38
310.445	0.38
310.815	0.38
311.184	0.38
311.553	0.37
311.923	0.39
312.292	0.37
312.661	0.39
313.03	0.39
313.399	0.38
313.768	0.37
314.137	0.38
314.506	0.39
314.875	0.38
315.244	0.38
315.613	0.38
315.982	0.38
316.351	0.37
316.72	0.37
317.089	0.38
317.458	0.37
317.826	0.37
318.195	0.37
318.564	0.38
318.933	0.38
319.301	0.37
319.67	0.37
320.038	0.37
320.407	0.35
320.775	0.37
321.144	0.36
321.512	0.37
321.881	0.36
322.249	0.37
322.618	0.36
322.986	0.36
323.354	0.34
323.723	0.36
324.091	0.35
324.459	0.36
324.827	0.34
325.195	0.34
325.564	0.33
325.932	0.33
326.3	0.34
326.668	0.33
327.036	0.33
327.404	0.33
327.772	0.31
328.14	0.32
328.508	0.31
328.875	0.32
329.243	0.33
329.611	0.33
329.979	0.32
330.346	0.31
330.714	0.3
331.082	0.29
331.449	0.28
331.817	0.29
332.185	0.29
332.552	0.28
332.92	0.28
333.287	0.28
333.655	0.28
334.022	0.29
334.389	0.28
334.757	0.26
335.124	0.27
335.491	0.26
335.859	0.25
336.226	0.25
336.593	0.25
336.96	0.24
337.327	0.23
337.695	0.24
338.062	0.23
338.429	0.23
338.796	0.23
339.163	0.22
339.53	0.22
339.897	0.22
340.263	0.22
340.63	0.21
340.997	0.2
341.364	0.2
341.731	0.2
342.097	0.2
342.464	0.19
342.831	0.19
343.197	0.19
343.564	0.18
343.931	0.16
344.297	0.17
344.664	0.17
345.03	0.16
345.396	0.16
345.763	0.16
346.129	0.15
346.496	0.15
346.862	0.16
347.228	0.15
347.594	0.13
347.961	0.14
348.327	0.14
348.693	0.13
349.059	0.13
349.425	0.13
349.791	0.12
350.157	0.12
350.523	0.12
350.889	0.12
351.255	0.12
351.621	0.11
351.987	0.11
352.353	0.11
352.719	0.11
353.084	0.1
353.45	0.09
353.816	0.1
354.181	0.1
354.547	0.09
354.913	0.08
355.278	0.08
355.644	0.07
356.009	0.08
356.375	0.07
356.74	0.07
357.106	0.07
357.471	0.06
357.836	0.06
358.202	0.07
358.567	0.06
358.932	0.06
359.297	0.07
359.663	0.07
360.028	0.06
360.393	0.06
360.758	0.05
361.123	0.06
361.488	0.05
361.853	0.07
362.218	0.06
362.583	0.05
362.948	0.05
363.312	0.05
363.677	0.05
364.042	0.05
364.407	0.05
364.772	0.04
365.136	0.04
365.501	0.05
365.865	0.05
366.23	0.02
366.595	0.05
366.959	0.05
367.324	0.05
367.688	0.05
368.052	0.02
368.417	0.03
368.781	0.04
369.145	0.03
369.51	0.03
369.874	0.03
370.238	0.04
370.602	0.02
370.967	0.02
371.331	0.03
371.695	0.04
372.059	0.04
372.423	0.04
372.787	0.05
373.151	0.04
373.515	0.03
373.878	0.02
374.242	0.04
374.606	0.03
374.97	0.03
375.334	0.03
375.697	0.03
376.061	0.03
376.425	0.04
376.788	0.03
377.152	0.03
377.515	0.04
377.879	0.04
378.242	0.04
378.606	0.04
378.969	0.05
379.333	0.04
379.696	0.03
380.059	0.03
380.422	0.03
380.786	0.03
381.149	0.03
381.512	0.03
381.875	0.02
382.238	0.02
382.601	0.04
382.964	0.03
383.327	0.03
383.69	0.03
384.053	0.04
384.416	0.02
384.779	0.03
385.142	0.02
385.504	0.03
385.867	0.03
386.23	0.02
386.593	0.03
386.955	0.03
387.318	0.03
387.68	0.03
388.043	0.04
388.405	0.03
388.768	0.04
389.13	0.03
389.493	0.04
389.855	0.04
390.217	0.04
390.58	0.04
390.942	0.04
391.304	0.04
391.666	0.04
392.028	0.04
392.391	0.05
392.753	0.04
393.115	0.05
393.477	0.04
393.839	0.05
394.201	0.05
394.563	0.06
394.924	0.05
395.286	0.06
395.648	0.05
396.01	0.05
396.371	0.06
396.733	0.06
397.095	0.05
397.456	0.06
397.818	0.06
398.18	0.06
398.541	0.05
398.903	0.06
399.264	0.06
399.625	0.06
399.987	0.06
400.348	0.07
400.709	0.06
401.071	0.07
401.432	0.06
401.793	0.07
402.154	0.06
402.515	0.07
402.876	0.07
403.238	0.07
403.599	0.07
403.96	0.08
404.32	0.08
404.681	0.09
405.042	0.08
405.403	0.08
405.764	0.08
406.125	0.09
406.485	0.09
406.846	0.1
407.207	0.09
407.567	0.09
407.928	0.1
408.288	0.1
408.649	0.09
409.009	0.1
409.37	0.1
409.73	0.09
410.091	0.1
410.451	0.09
410.811	0.09
411.171	0.1
411.532	0.11
411.892	0.1
412.252	0.09
412.612	0.1
412.972	0.11
413.332	0.1
413.692	0.11
414.052	0.11
414.412	0.12
414.772	0.12
415.132	0.11
415.492	0.12
415.851	0.13
416.211	0.11
416.571	0.12
416.931	0.13
417.29	0.14
417.65	0.12
418.009	0.13
418.369	0.12
418.728	0.13
419.088	0.14
419.447	0.12
419.807	0.12
420.166	0.12
420.525	0.13
420.884	0.14
421.244	0.14
421.603	0.13
421.962	0.13
422.321	0.13
422.68	0.13
423.039	0.13
423.398	0.13
423.757	0.12
424.116	0.14
424.475	0.14
424.834	0.14
425.193	0.15
425.551	0.14
425.91	0.14
426.269	0.14
426.628	0.15
426.986	0.12
427.345	0.15
427.703	0.15
428.062	0.15
428.42	0.15
428.779	0.15
429.137	0.15
429.496	0.16
429.854	0.16
430.212	0.17
430.57	0.16
430.929	0.15
431.287	0.14
431.645	0.16
432.003	0.16
432.361	0.16
432.719	0.17
433.077	0.15
433.435	0.16
433.793	0.16
434.151	0.15
434.509	0.14
434.866	0.16
435.224	0.16
435.582	0.17
435.94	0.16
436.297	0.16
436.655	0.15
437.012	0.17
437.37	0.16
437.727	0.17
438.085	0.18
438.442	0.15
438.8	0.16
439.157	0.14
439.514	0.17
439.872	0.17
440.229	0.16
440.586	0.16
440.943	0.17
441.3	0.15
441.657	0.17
442.014	0.15
442.371	0.16
442.728	0.17
443.085	0.16
443.442	0.17
443.799	0.16
444.156	0.16
444.513	0.16
444.869	0.16
445.226	0.15
445.583	0.17
445.939	0.16
446.296	0.16
446.652	0.16
447.009	0.17
447.365	0.15
447.722	0.16
448.078	0.16
448.434	0.17
448.791	0.17
449.147	0.16
449.503	0.16
449.859	0.16
450.215	0.16
450.571	0.18
450.928	0.16
451.284	0.16
451.64	0.17
451.995	0.17
452.351	0.17
452.707	0.17
453.063	0.17
453.419	0.17
453.775	0.18
454.13	0.18
454.486	0.18
454.842	0.18
455.197	0.17
455.553	0.17
455.908	0.18
456.264	0.19
456.619	0.18
456.975	0.2
457.33	0.18
457.685	0.18
458.04	0.2
458.396	0.19
458.751	0.2
459.106	0.2
459.461	0.21
459.816	0.22
460.171	0.22
460.526	0.22
460.881	0.23
461.236	0.23
461.591	0.23
461.946	0.24
462.301	0.24
462.655	0.26
463.01	0.26
463.365	0.27
463.719	0.27
464.074	0.27
464.428	0.27
464.783	0.27
465.137	0.26
465.492	0.27
465.846	0.26
466.201	0.27
466.555	0.28
466.909	0.28
467.263	0.29
467.618	0.3
467.972	0.3
468.326	0.3
468.68	0.31
469.034	0.3
469.388	0.3
469.742	0.3
470.096	0.32
470.45	0.31
470.804	0.31
471.157	0.31
471.511	0.31
471.865	0.31
472.218	0.3
472.572	0.3
472.926	0.28
473.279	0.28
473.633	0.29
473.986	0.28
474.34	0.27
474.693	0.25
475.046	0.26
475.4	0.24
475.753	0.24
476.106	0.24
476.459	0.22
476.812	0.23
477.165	0.21
477.519	0.22
477.872	0.22
478.224	0.21
478.577	0.22
478.93	0.2
479.283	0.21
479.636	0.18
479.989	0.18
480.341	0.17
480.694	0.17
481.047	0.17
481.399	0.16
481.752	0.15
482.104	0.15
482.457	0.16
482.809	0.15
483.162	0.14
483.514	0.14
483.866	0.13
484.219	0.13
484.571	0.13
484.923	0.13
485.275	0.12
485.627	0.12
485.979	0.1
486.331	0.11
486.683	0.1
487.035	0.1
487.387	0.11
487.739	0.12
488.091	0.12
488.443	0.1
488.794	0.11
489.146	0.1
489.498	0.11
489.849	0.09
490.201	0.09
490.552	0.1
490.904	0.08
491.255	0.1
491.607	0.1
491.958	0.09
492.309	0.08
492.661	0.08
493.012	0.08
493.363	0.09
493.714	0.06
494.065	0.07
494.416	0.06
494.767	0.07
495.118	0.06
495.469	0.06
495.82	0.07
496.171	0.07
496.522	0.05
496.872	0.06
497.223	0.05
497.574	0.04
497.924	0.05
498.275	0.07
498.626	0.05
498.976	0.04
499.327	0.03
499.677	0.04
500.027	0.05
500.378	0.02
500.728	0.02
501.078	0.04
501.428	0.01
501.779	0.03
502.129	0.03
502.479	0.03
502.829	0.01
503.179	0.02
503.529	0.02
503.879	0.03
504.229	0.03
504.578	0.01
504.928	0.03
505.278	0.01
505.628	0.01
505.977	0.03
506.327	0.02
506.676	0.02
507.026	0.03
507.375	0.01
507.725	0.01
508.074	0.01
508.424	0.01
508.773	0
509.122	0
509.471	0
509.82	0.01
510.17	0
510.519	0
510.868	0
511.217	-0
511.566	0.01
511.915	0.02
512.263	0.01
512.612	-0.01
512.961	-0.01
513.31	0.01
513.659	-0
514.007	-0.02
514.356	0.01
514.704	-0
515.053	0.02
515.401	-0.01
515.75	-0
516.098	-0.01
516.447	0
516.795	-0.02
517.143	-0.01
517.491	-0.01
517.839	-0.02
518.188	-0.01
518.536	-0.01
518.884	-0.02
519.232	-0.01
519.58	-0
519.928	0
520.275	0
520.623	-0.01
520.971	-0.02
521.319	-0
521.666	-0.01
522.014	-0.02
522.362	-0.01
522.709	-0.02
523.057	-0.02
523.404	-0.02
523.752	-0.04
524.099	-0.03
524.446	-0.03
524.794	-0.04
525.141	-0.01
525.488	-0.01
525.835	-0.02
526.182	-0.02
526.529	-0.02
526.876	-0.01
527.223	-0.02
527.57	-0.03
527.917	-0.01
528.264	-0.02
528.611	-0.02
528.958	-0.02
529.304	-0.01
529.651	-0.03
529.998	-0.02
530.344	-0.03
530.691	-0.02
531.037	-0.03
531.384	-0.03
531.73	-0.02
532.076	-0.03
532.423	-0.03
532.769	-0.02
533.115	-0.01
533.461	-0.04
533.807	-0.02
534.154	-0.02
534.5	-0.01
534.846	-0.01
535.192	-0.02
535.537	-0.03
535.883	-0.03
536.229	-0.03
536.575	-0.03
536.921	-0.03
537.266	-0.03
537.612	-0.03
537.957	-0.01
538.303	-0.03
538.649	-0.02
538.994	-0.04
539.339	-0.03
539.685	-0.03
540.03	-0.03
540.375	-0.02
540.721	-0.03
541.066	-0.03
541.411	-0.02
541.756	-0.03
542.101	-0.04
542.446	-0.02
542.791	-0.02
543.136	-0.02
543.481	-0.03
543.825	-0.03
544.17	-0.04
544.515	-0.02
544.86	-0.03
545.204	-0.03
545.549	-0.03
545.893	-0.03
546.238	-0.04
546.582	-0.03
546.927	-0.03
547.271	-0.03
547.615	-0.02
547.96	-0.03
548.304	-0.02
548.648	-0.03
548.992	-0.03
549.336	-0.03
549.68	-0.02
550.024	-0.05
550.368	-0.04
550.712	-0.03
551.056	-0.03
551.4	-0.02
551.743	-0.04
552.087	-0.02
552.431	-0.01
552.774	-0.02
553.118	-0.03
553.462	-0.02
553.805	-0.02
554.148	-0.03
554.492	-0.02
554.835	-0.02
555.178	-0.01
555.522	-0.03
555.865	-0.01
556.208	-0.03
556.551	-0.03
556.894	-0.02
557.237	-0.01
557.58	-0.03
557.923	-0.04
558.266	-0.04
558.609	-0.02
558.952	-0.04
559.294	-0.03
559.637	-0.05
559.98	-0.03
560.322	-0.01
560.665	-0.03
561.007	-0.01
561.35	-0.04
561.692	-0.03
562.034	-0.03
562.377	-0.03
562.719	-0.02
563.061	-0.04
563.403	-0.03
563.745	-0.03
564.088	-0.03
564.43	-0.03
564.772	-0.02
565.113	-0.02
565.455	-0.03
565.797	-0.02
566.139	-0.03
566.481	-0.02
566.822	-0.03
567.164	-0.04
567.506	-0.04
567.847	-0.03
568.189	-0.03
568.53	-0.03
568.872	-0.03
569.213	-0.03
569.554	-0.02
569.895	-0.03
570.237	-0.04
570.578	-0.03
570.919	-0.04
571.26	-0.02
571.601	-0.02
571.942	-0.02
572.283	-0.02
572.624	-0.02
572.965	-0.01
573.306	-0.03
573.646	-0.03
573.987	-0.02
574.328	-0.03
574.668	-0.02
575.009	-0.02
575.349	-0.02
575.69	-0.01
576.03	-0.02
576.37	-0.03
576.711	-0.03
577.051	-0.03
577.391	-0.03
577.731	-0.04
578.072	-0.02
578.412	-0.03
578.752	-0.04
579.092	-0.03
579.431	-0.03
579.771	-0.02
580.111	-0.02
580.451	-0.02
580.791	-0.03
581.13	-0.02
581.47	-0.04
581.81	-0.03
582.149	-0.03
582.489	-0.03
582.828	-0.03
583.167	-0.03
583.507	-0.02
583.846	-0.02
584.185	-0.03
584.525	-0.02
584.864	-0.03
585.203	-0.04
585.542	-0.03
585.881	-0.02
586.22	-0.03
586.559	-0.03
586.898	-0.02
587.236	-0.02
587.575	-0.04
587.914	-0.04
588.252	-0.04
588.591	-0.04
588.93	-0.04
589.268	-0.04
589.607	-0.03
589.945	-0.03
590.283	-0.04
590.622	-0.03
590.96	-0.03
591.298	-0.03
591.636	-0.03
591.974	-0.04
592.313	-0.02
592.651	-0.03
592.989	-0.04
593.326	-0.04
593.664	-0.03
594.002	-0.04
594.34	-0.03
594.678	-0.04
595.015	-0.02
595.353	-0.02
595.691	-0.02
596.028	-0.03
596.366	-0.04
596.703	-0.03
597.04	-0.04
597.378	-0.02
597.715	-0.04
598.052	-0.05
598.389	-0.04
598.726	-0.04
599.064	-0.04
599.401	-0.03
599.738	-0.04
600.074	-0.03
600.411	-0.04
600.748	-0.03
601.085	-0.03
601.422	-0.03
601.758	-0.02
602.095	-0.03
602.432	-0.02
602.768	-0.04
603.105	-0.03
603.441	-0.03
603.777	-0.03
604.114	-0.03
604.45	-0.02
604.786	-0.02
605.122	-0.02
605.459	-0.03
605.795	-0.02
606.131	-0.02
606.467	-0.03
606.803	-0.02
607.139	-0.03
607.474	-0.02
607.81	-0.03
608.146	-0.03
608.482	-0.03
608.817	-0.03
609.153	-0.03
609.488	-0.03
609.824	-0.03
610.159	-0.04
610.495	-0.04
610.83	-0.03
611.165	-0.02
611.5	-0.04
611.836	-0.04
612.171	-0.03
612.506	-0.03
612.841	-0.03
613.176	-0.04
613.511	-0.03
613.845	-0.04
614.18	-0.02
614.515	-0.04
614.85	-0.03
615.184	-0.02
615.519	-0.02
615.854	-0.03
616.188	-0.04
616.523	-0.05
616.857	-0.04
617.191	-0.03
617.526	-0.02
617.86	-0.04
618.194	-0.05
618.528	-0.04
618.862	-0.06
619.196	-0.04
619.53	-0.03
619.864	-0.05
620.198	-0.03
620.532	-0.03
620.866	-0.04
621.2	-0.04
621.533	-0.04
621.867	-0.04
622.201	-0.02
622.534	-0.04
622.868	-0.03
623.201	-0.04
623.534	-0.03
623.868	-0.04
624.201	-0.03
624.534	-0.02
624.868	-0.03
625.201	-0.03
625.534	-0.03
625.867	-0.04
626.2	-0.04
626.533	-0.02
626.865	-0.04
627.198	-0.03
627.531	-0.06
627.864	-0.03
628.196	-0.04
628.529	-0.05
628.862	-0.04
629.194	-0.04
629.527	-0.04
629.859	-0.04
630.191	-0.05
630.524	-0.04
630.856	-0.05
631.188	-0.04
631.52	-0.04
631.852	-0.04
632.184	-0.04
632.516	-0.04
632.848	-0.04
633.18	-0.04
633.512	-0.04
633.844	-0.04
634.175	-0.05
634.507	-0.04
634.839	-0.06
635.17	-0.05
635.502	-0.05
635.833	-0.05
636.165	-0.04
636.496	-0.06
636.827	-0.05
637.159	-0.05
637.49	-0.04
637.821	-0.05
638.152	-0.02
638.483	-0.03
638.814	-0.05
639.145	-0.06
639.476	-0.05
639.807	-0.04
640.137	-0.05
640.468	-0.04
640.799	-0.05
641.129	-0.06
641.46	-0.06
641.791	-0.06
642.121	-0.06
642.451	-0.05
642.782	-0.06
643.112	-0.06
643.442	-0.05
643.773	-0.05
644.103	-0.05
644.433	-0.04
644.763	-0.03
645.093	-0.04
645.423	-0.05
645.753	-0.03
646.082	-0.05
646.412	-0.03
646.742	-0.04
647.072	-0.05
647.401	-0.03
647.731	-0.04
648.06	-0.03
648.39	-0.04
648.719	-0.04
649.048	-0.04
649.378	-0.04
649.707	-0.04
650.036	-0.04
650.365	-0.04
650.694	-0.04
651.023	-0.04
651.352	-0.04
651.681	-0.04
652.01	-0.03
652.339	-0.03
652.668	-0.04
652.996	-0.03
653.325	-0.03
653.654	-0.04
653.982	-0.03
654.311	-0.04
654.639	-0.04
654.967	-0.03
655.296	-0.03
655.624	-0.05
655.952	-0.06
656.28	-0.06
656.609	-0.04
656.937	-0.05
657.265	-0.03
657.593	-0.02
657.92	-0.01
658.248	-0.01
658.576	-0.02
658.904	-0.03
659.231	-0.03
659.559	-0.04
659.887	-0.03
660.214	-0.02
660.542	-0.02
660.869	-0.04
661.196	-0.03
661.524	-0.05
661.851	-0.05
662.178	-0.05
662.505	-0.05
662.832	-0.05
663.159	-0.05
663.486	-0.05
663.813	-0.05
664.14	-0.05
664.467	-0.04
664.794	-0.05
665.12	-0.04
665.447	-0.05
665.774	-0.05
666.1	-0.05
666.427	-0.07
666.753	-0.05
667.079	-0.05
667.406	-0.04
667.732	-0.05
668.058	-0.04
668.384	-0.05
668.71	-0.03
669.036	-0.04
669.362	-0.05
669.688	-0.04
670.014	-0.04
670.34	-0.04
670.666	-0.04
670.991	-0.03
671.317	-0.05
671.643	-0.06
671.968	-0.05
672.294	-0.06
672.619	-0.06
672.945	-0.06
673.27	-0.05
673.595	-0.04
673.92	-0.05
674.246	-0.06
674.571	-0.06
674.896	-0.05
675.221	-0.05
675.546	-0.05
675.87	-0.04
676.195	-0.04
676.52	-0.05
676.845	-0.05
677.169	-0.03
677.494	-0.04
677.819	-0.04
678.143	-0.04
678.468	-0.04
678.792	-0.05
679.116	-0.05
679.44	-0.04
679.765	-0.04
680.089	-0.05
680.413	-0.05
680.737	-0.04
681.061	-0.05
681.385	-0.04
681.709	-0.05
682.033	-0.05
682.356	-0.05
682.68	-0.04
683.004	-0.05
683.327	-0.04
683.651	-0.05
683.974	-0.04
684.298	-0.05
684.621	-0.03
684.944	-0.05
685.268	-0.05
685.591	-0.04
685.914	-0.04
686.237	-0.04
686.56	-0.04
686.883	-0.05
687.206	-0.04
687.529	-0.04
687.852	-0.05
688.175	-0.05
688.497	-0.05
688.82	-0.06
689.142	-0.06
689.465	-0.06
689.787	-0.06
690.11	-0.06
690.432	-0.06
690.755	-0.07
691.077	-0.05
691.399	-0.07
691.721	-0.06
692.043	-0.04
692.365	-0.04
692.687	-0.05
693.009	-0.06
693.331	-0.05
693.653	-0.05
693.974	-0.06
694.296	-0.05
694.618	-0.05
694.939	-0.06
695.261	-0.05
695.582	-0.06
695.904	-0.06
696.225	-0.07
696.546	-0.07
696.868	-0.06
697.189	-0.05
697.51	-0.06
697.831	-0.06
698.152	-0.06
698.473	-0.06
698.794	-0.05
699.114	-0.06
699.435	-0.06
699.756	-0.06
700.077	-0.07
700.397	-0.06
700.718	-0.06
701.038	-0.04
701.359	-0.05
701.679	-0.05
701.999	-0.04
702.32	-0.05
702.64	-0.04
702.96	-0.03
703.28	-0.05
703.6	-0.04
703.92	-0.05
704.24	-0.04
704.56	-0.06
704.879	-0.05
705.199	-0.05
705.519	-0.05
705.838	-0.06
706.158	-0.05
706.478	-0.05
706.797	-0.05
707.116	-0.05
707.436	-0.04
707.755	-0.04
708.074	-0.05
708.393	-0.05
708.712	-0.04
709.031	-0.04
709.35	-0.04
709.669	-0.05
709.988	-0.04
710.307	-0.04
710.626	-0.05
710.944	-0.05
711.263	-0.05
711.582	-0.06
711.9	-0.06
712.219	-0.06
712.537	-0.05
712.855	-0.06
713.174	-0.04
713.492	-0.05
713.81	-0.05
714.128	-0.04
714.446	-0.05
714.764	-0.05
715.082	-0.04
715.4	-0.05
715.718	-0.04
716.035	-0.04
716.353	-0.03
716.671	-0.05
716.988	-0.06
717.306	-0.05
717.623	-0.05
717.941	-0.06
718.258	-0.07
718.575	-0.06
718.893	-0.06
719.21	-0.06
719.527	-0.06
719.844	-0.07
720.161	-0.06
720.478	-0.06
720.795	-0.07
721.112	-0.06
721.428	-0.04
721.745	-0.06
722.062	-0.05
722.378	-0.06
722.695	-0.05
723.011	-0.06
723.328	-0.05
723.644	-0.06
723.96	-0.05
724.276	-0.07
724.593	-0.06
724.909	-0.05
725.225	-0.07
725.541	-0.07
725.857	-0.06
726.173	-0.06
726.488	-0.07
726.804	-0.06
727.12	-0.07
727.435	-0.06
727.751	-0.07
728.067	-0.07
728.382	-0.06
728.697	-0.06
729.013	-0.06
729.328	-0.05
729.643	-0.05
729.958	-0.06
730.273	-0.05
730.588	-0.04
730.903	-0.05
731.218	-0.05
731.533	-0.04
731.848	-0.05
732.163	-0.06
732.477	-0.06
732.792	-0.05
733.107	-0.05
733.421	-0.05
733.736	-0.05
734.05	-0.05
734.364	-0.04
734.678	-0.06
734.993	-0.05
735.307	-0.06
735.621	-0.06
735.935	-0.05
736.249	-0.05
736.563	-0.06
736.877	-0.04
737.19	-0.05
737.504	-0.05
737.818	-0.06
738.131	-0.05
738.445	-0.05
738.758	-0.05
739.072	-0.06
739.385	-0.05
739.698	-0.05
740.012	-0.06
740.325	-0.05
740.638	-0.05
740.951	-0.06
741.264	-0.05
741.577	-0.03
741.89	-0.05
742.203	-0.05
742.515	-0.04
742.828	-0.05
743.141	-0.04
743.453	-0.03
743.766	-0.04
744.078	-0.04
744.391	-0.03
744.703	-0.04
745.015	-0.03
745.327	-0.03
745.639	-0.03
745.952	-0.04
746.264	-0.04
746.575	-0.05
746.887	-0.05
747.199	-0.06
747.511	-0.06
747.823	-0.06
748.134	-0.06
748.446	-0.08
748.757	-0.06
749.069	-0.07
749.38	-0.07
749.692	-0.07
750.003	-0.07
750.314	-0.07
750.625	-0.07
750.936	-0.06
751.248	-0.05
751.559	-0.06
751.869	-0.06
752.18	-0.05
752.491	-0.06
752.802	-0.07
753.112	-0.07
753.423	-0.06
753.734	-0.06
754.044	-0.08
754.355	-0.07
754.665	-0.07
754.975	-0.08
755.285	-0.07
755.596	-0.07
755.906	-0.05
756.216	-0.06
756.526	-0.06
756.836	-0.04
757.146	-0.05
757.455	-0.05
757.765	-0.05
758.075	-0.04
758.385	-0.05
758.694	-0.03
759.004	-0.03
759.313	-0.03
759.622	-0.04
759.932	-0.03
760.241	-0.02
760.55	-0.03
760.859	-0.02
761.168	-0.03
761.477	-0.05
761.786	-0.06
762.095	-0.05
762.404	-0.05
762.713	-0.05
763.021	-0.05
763.33	-0.05
763.639	-0.04
763.947	-0.04
764.256	-0.04
764.564	-0.03
764.872	-0.03
765.181	-0.03
765.489	-0.03
765.797	-0.02
766.105	-0.03
766.413	-0.02
766.721	-0.03
767.029	-0.04
767.337	-0.03
767.644	-0.04
767.952	-0.04
768.26	-0.04
768.567	-0.04
768.875	-0.02
769.182	-0.05
769.49	-0.04
769.797	-0.04
770.104	-0.05
770.411	-0.04
770.718	-0.04
771.026	-0.05
771.333	-0.03
771.639	-0.04
771.946	-0.05
772.253	-0.04
772.56	-0.04
772.867	-0.04
773.173	-0.03
773.48	-0.03
773.786	-0.05
774.093	-0.03
774.399	-0.03
774.705	-0.03
775.012	-0.04
775.318	-0
775.624	-0.03
775.93	-0.02
776.236	-0.02
776.542	-0.02
776.848	-0.02
777.154	-0.02
777.459	-0.04
777.765	-0.02
778.071	-0.03
778.376	-0.03
778.682	-0.03
778.987	-0.03
779.292	-0.03
779.598	-0.03
779.903	-0.04
780.208	-0.04
780.513	-0.03
780.818	-0.03
781.123	-0.02
781.428	-0.02
781.733	-0.01
782.038	-0.01
782.343	-0.01
782.647	0.01
782.952	-0.01
783.256	-0.01
783.561	0.01
783.865	-0.02
784.17	-0.01
784.474	0.01
784.778	0
785.082	0.01
785.386	-0.01
785.69	0.02
785.994	0
786.298	0
786.602	0.02
786.906	0
787.209	0.01
787.513	0.02
787.817	0.01
788.12	0.01
788.424	0
788.727	0
789.03	0.02
789.333	0.03
789.637	-0.01
789.94	-0
790.243	-0.02
790.546	-0.01
790.849	-0.01
791.152	-0.01
791.454	-0.01
791.757	-0
792.06	-0.03
792.362	-0.02
792.665	-0.03
792.967	-0.02
793.27	-0.01
793.572	0
793.874	0.01
794.177	0.02
794.479	0.02
794.781	0.02
795.083	0.05
795.385	0.01
795.687	0.03
795.989	0.03
796.29	0.02
796.592	0
796.894	-0.01
797.195	0.03
797.497	-0
797.798	0.02
798.1	0.01
798.401	0.02
798.702	-0
799.003	-0.02
799.304	0.03
799.605	0.01
799.906	0.01
800.207	0.03
800.508	0.02
800.809	0.04
801.11	0.02
801.41	-0
801.711	0.01
802.011	0.02
802.312	0.03
802.612	0.03
802.913	0.03
803.213	0.06
803.513	0.03
803.813	0
804.113	-0.02
804.413	0.05
804.713	0.01
805.013	0.03
805.313	0.03
805.613	0.01
805.912	-0.01
806.212	0.02
806.511	0.02
806.811	0.04
807.11	0.06
807.41	0.07
807.709	0.05
808.008	0.03
808.307	-0.01
808.606	0.04
808.905	0.01
809.204	0.05
809.503	0.07
809.802	0.07
810.101	0.03
810.399	0.04
810.698	0.07
810.997	0.03
811.295	0.03
811.593	0.02
811.892	0.05
812.19	0.04
812.488	0.06
812.786	0.04
813.084	-0.02
813.383	-0
813.68	0.01
813.978	0.04
814.276	0.09
814.574	0.14
814.872	0.11
815.169	0.07
815.467	0.09
815.764	0.04
816.062	0.03
816.359	0.08
816.656	0.07
816.954	0.03
817.251	0.03
817.548	0.06
817.845	0.09
818.142	0.03
818.439	-0.01
818.735	-0.01
819.032	0.03
819.329	-0.01
819.626	-0.03
819.922	0.01
820.219	0.04
820.515	0.1
820.811	0.04
821.108	0.03
821.404	0.09
821.7	-0
821.996	0.02
822.292	0.11
822.588	0.05
822.884	0.09
823.18	0.04
823.475	0.01
823.771	0.06
824.067	0.07
824.362	-0.03
824.658	0.03
824.953	0.03
825.249	0.08
825.544	0.01
825.839	0.05
826.134	0.09
826.429	0.04
826.724	0.05
827.019	-0.01
827.314	-0.05
827.609	0.05
827.904	0
828.198	0.04
828.493	0.07
828.787	-0.02
829.082	0.04
829.376	0.05
829.671	0.03
829.965	0.14
830.259	0.05
830.553	0.02
830.847	0.04
831.141	-0.02
831.435	0.02
831.729	0.05
832.023	0.01
832.317	0.18
832.61	0.02
832.904	-0.01
833.197	0.05
833.491	-0.02
833.784	0
834.077	-0
834.371	0.07
834.664	0.06
834.957	0.04
835.25	0.01
835.543	0.03
835.836	0.14
836.129	0.09
836.421	0.05
836.714	-0.02
837.007	0.13
837.299	0.08
837.592	-0.03
837.884	0.01
838.177	0.05
838.469	-0.04
838.761	0.02
839.053	0.1
839.345	0.04
839.637	-0.03
839.929	-0.01
840.221	0.12
840.513	-0.03
840.805	0.05
841.096	0
841.388	0.02
841.68	-0.13
841.971	-0.06
842.262	-0.09
842.554	-0.03
842.845	-0.03
843.136	-0.2
843.427	-0.21
843.718	0.03
844.009	0.1
844.3	-0.26
844.591	-0.16
844.882	-0.03
845.173	0.1
845.463	-0.1
845.754	0.14
846.044	0.1
846.335	0.11
846.625	0.18
846.915	-0.22
847.206	0.18
847.496	-0.22
847.786	-0.17
848.076	-0.35
848.366	-0.04
848.656	-0
848.945	0.18
849.235	0.05
849.525	-0.01
849.814	-0.05
850.104	-0.03
850.393	-0.05
850.683	-0.07
850.972	-0.19
851.261	-0.14
851.551	-0.49
851.84	0.27
852.129	-0.08
852.418	-0.14
852.707	-0.24
852.995	0.02
853.284	-0.02
853.573	-0.23
853.862	-0.12
854.15	0.39
854.439	-0.03
854.727	-0.63
855.015	-0.08
855.304	0.13
855.592	0.02
855.88	-0.14
856.168	-0.13
856.456	-0.15
856.744	-0.04
857.032	-0.12
857.32	-0.08
857.607	-0.07
857.895	0.15
858.183	-0.71
858.47	-0.19
858.757	-0
859.045	-0
859.332	-0
859.619	-0.07
859.907	-0.35
860.194	-0.28
860.481	0.3
860.768	0.48
861.054	-0
861.341	-0.12
861.628	-0
861.915	-0
862.201	-0.22
862.488	-0.43
862.774	-0
863.061	0.21
863.347	0.09
863.633	-0
863.919	-0.58
864.205	-0
864.491	-0.35
864.777	-0.6
865.063	-0.14
865.349	-0
865.635	0.56
865.92	-0.56
866.206	-0.26
866.492	-0
866.777	0.22
867.062	-0.3
867.348	-0
867.633	-0.51
867.918	0.41
868.203	-0
868.488	-0
868.773	-0.6
869.058	-0.13
869.343	0.16
869.628	-0.46
869.912	-0
870.197	0.06
870.482	-0
870.766	-0
871.05	-0
871.335	-0
871.619	0.22
871.903	-0.08
872.187	-0
872.471	-0
872.755	-0
873.039	-0.04
873.323	0.64
873.607	-0.1
873.89	-0.55
874.174	-0
874.458	0.12
874.741	-0
875.024	0.43
875.308	0.58
875.591	-0
875.874	0.12
876.157	-0
876.44	-0
876.723	0.48
877.006	-0
877.289	-0.84
877.572	-0
877.854	0.07
878.137	-0.39
878.42	-0
878.702	-0
878.984	-0.75
879.267	0.65
879.549	-0
879.831	-0.35
880.113	-0.52
880.395	-0.57
880.677	-0
880.959	-0
