Data from c2t_JH05_50uM_Absorbance_11-14-27-039.txt Node
Date: Thu Dec 21 11:14:27 GMT 2017
User: egn-admin
Spectrometer: OFX00224
Trigger mode: 0
Integration Time (sec): 5.000000E-2
Scans to average: 1
Nonlinearity correction enabled: false
Boxcar width: 0
Storing dark spectrum: false
XAxis mode: Wavelengths
Number of Pixels in Spectrum: 2136
>>>>>Begin Spectral Data<<<<<
154.91	-0
155.289	-0
155.669	0.62
156.048	0.49
156.428	-0.9
156.807	1.26
157.186	-0
157.566	0.6
157.945	-0
158.325	-0.7
158.704	-0
159.083	-0
159.462	-0.11
159.842	-0
160.221	0.08
160.6	0.18
160.979	-0.1
161.359	-0
161.738	-0.04
162.117	-0
162.496	-0
162.875	-0.48
163.254	-0.03
163.633	-0
164.012	-0.6
164.391	-1
164.77	-0
165.149	0.04
165.528	-0.43
165.907	-0
166.286	-0.04
166.665	0.43
167.044	0.12
167.423	-0.1
167.802	-0
168.181	-0
168.559	-0
168.938	-0
169.317	0.1
169.696	-0.24
170.074	0.37
170.453	-0
170.832	-0
171.21	1.15
171.589	0.09
171.968	-0.49
172.346	-0
172.725	-0
173.103	-0.19
173.482	0.57
173.861	-0
174.239	-0
174.617	-0.57
174.996	-0
175.374	-0.7
175.753	-0.3
176.131	-0.5
176.51	0.08
176.888	-0.12
177.266	0.11
177.645	-0
178.023	-0.12
178.401	-0
178.779	-0
179.158	-0
179.536	0.7
179.914	-0.56
180.292	-0
180.67	0.21
181.048	-0
181.427	-0.4
181.805	0.54
182.183	0.65
182.561	-0
182.939	-0.25
183.317	-0.15
183.695	-0.56
184.073	0.22
184.451	-0
184.829	0.12
185.206	0.15
185.584	-0.63
185.962	-0
186.34	0.3
186.718	0.12
187.096	-0
187.473	0.24
187.851	-0.48
188.229	-0.23
188.607	1.38
188.984	0.52
189.362	0.53
189.74	0.13
190.117	0.29
190.495	0.14
190.872	0.19
191.25	0.46
191.627	0.01
192.005	0.06
192.382	0.07
192.76	-0.17
193.137	-0.2
193.515	0.23
193.892	0.39
194.269	0.1
194.647	0.55
195.024	-0.05
195.401	0.01
195.779	0.04
196.156	0.14
196.533	0.06
196.91	0.5
197.288	-1.07
197.665	-1.62
198.042	0.06
198.419	0.14
198.796	-0.05
199.173	1
199.55	-0.63
199.927	0.34
200.304	-0.2
200.681	0.03
201.058	0.19
201.435	-0
201.812	-0.17
202.189	0.04
202.566	0.09
202.943	0.36
203.32	0.23
203.697	0.22
204.073	0.32
204.45	0.23
204.827	0.16
205.204	0.4
205.58	-0.02
205.957	0.21
206.334	0.6
206.71	0.37
207.087	0.05
207.464	-0.02
207.84	0.02
208.217	0.05
208.593	0.14
208.97	-0.22
209.346	0.02
209.723	0.09
210.099	-0.23
210.476	-0.31
210.852	-0.01
211.228	-0.1
211.605	0.17
211.981	0.09
212.357	0.64
212.733	0.1
213.11	0.01
213.486	0.01
213.862	0.58
214.238	0.1
214.614	-0.05
214.991	0.79
215.367	0.04
215.743	0.03
216.119	0.08
216.495	-0.11
216.871	0.1
217.247	0.33
217.623	0.31
217.999	-0
218.375	0.03
218.751	0.16
219.127	0.24
219.502	0.01
219.878	0.08
220.254	-0.18
220.63	-0
221.006	-0.02
221.381	0.06
221.757	0.05
222.133	0.47
222.508	0.18
222.884	0.04
223.26	-0.19
223.635	-0.06
224.011	-0.18
224.386	0.03
224.762	-0.13
225.137	1.06
225.513	0.19
225.888	-0.56
226.264	0.03
226.639	0.3
227.014	0.6
227.39	-0
227.765	0.29
228.14	0.08
228.516	-0
228.891	-0
229.266	0.44
229.641	-0
230.017	0.18
230.392	0.28
230.767	-0.17
231.142	-0.05
231.517	0.29
231.892	0.17
232.267	0.1
232.642	0.39
233.017	0.28
233.392	0.56
233.767	0.38
234.142	-0.2
234.517	0.46
234.892	0.46
235.267	0.41
235.641	0.32
236.016	0.36
236.391	-0.13
236.766	-0.04
237.14	0.32
237.515	0.25
237.89	0.14
238.264	0.61
238.639	-0.13
239.014	-0.03
239.388	0.1
239.763	0.13
240.137	0.2
240.512	0.13
240.886	0.93
241.261	0.26
241.635	0.17
242.009	-0.02
242.384	-0.19
242.758	0.04
243.132	0.03
243.507	0.07
243.881	0.13
244.255	0.05
244.629	-0
245.004	0.64
245.378	0.23
245.752	0.21
246.126	-0.12
246.5	0.08
246.874	0.23
247.248	0.25
247.622	0.5
247.996	0.12
248.37	0.56
248.744	0.26
249.118	-0.08
249.492	-0
249.866	0.31
250.24	0.23
250.613	0.12
250.987	-0.07
251.361	-0.01
251.735	0.16
252.108	-0.01
252.482	-0
252.856	0.51
253.229	0.12
253.603	0.21
253.977	0.19
254.35	0.04
254.724	0.25
255.097	0.21
255.471	0.21
255.844	0.22
256.218	0.18
256.591	0.18
256.964	0.08
257.338	0.28
257.711	0.43
258.084	0.41
258.458	0.22
258.831	0.24
259.204	0.25
259.577	0.34
259.95	0.15
260.323	0.29
260.697	0.22
261.07	0.28
261.443	0.28
261.816	0.3
262.189	0.22
262.562	0.32
262.935	0.38
263.308	0.2
263.68	0.2
264.053	0.31
264.426	0.25
264.799	0.24
265.172	0.22
265.545	0.28
265.917	0.23
266.29	0.18
266.663	0.2
267.035	0.22
267.408	0.24
267.781	0.24
268.153	0.21
268.526	0.21
268.898	0.19
269.271	0.17
269.643	0.19
270.016	0.21
270.388	0.22
270.76	0.18
271.133	0.19
271.505	0.17
271.877	0.13
272.25	0.17
272.622	0.15
272.994	0.17
273.366	0.16
273.739	0.18
274.111	0.17
274.483	0.17
274.855	0.17
275.227	0.18
275.599	0.18
275.971	0.18
276.343	0.16
276.715	0.15
277.087	0.18
277.459	0.16
277.831	0.17
278.203	0.17
278.574	0.17
278.946	0.17
279.318	0.17
279.69	0.17
280.061	0.18
280.433	0.16
280.805	0.17
281.176	0.19
281.548	0.17
281.92	0.17
282.291	0.18
282.663	0.19
283.034	0.19
283.406	0.18
283.777	0.17
284.148	0.2
284.52	0.2
284.891	0.21
285.262	0.19
285.634	0.22
286.005	0.22
286.376	0.21
286.747	0.22
287.119	0.22
287.49	0.22
287.861	0.23
288.232	0.22
288.603	0.24
288.974	0.23
289.345	0.23
289.716	0.25
290.087	0.24
290.458	0.24
290.829	0.25
291.2	0.26
291.571	0.25
291.941	0.25
292.312	0.25
292.683	0.25
293.054	0.26
293.424	0.27
293.795	0.27
294.166	0.27
294.536	0.27
294.907	0.28
295.277	0.28
295.648	0.27
296.018	0.28
296.389	0.28
296.759	0.28
297.13	0.28
297.5	0.28
297.871	0.29
298.241	0.29
298.611	0.29
298.981	0.29
299.352	0.31
299.722	0.3
300.092	0.3
300.462	0.31
300.832	0.31
301.202	0.31
301.573	0.32
301.943	0.31
302.313	0.32
302.683	0.32
303.053	0.33
303.422	0.34
303.792	0.34
304.162	0.34
304.532	0.34
304.902	0.35
305.272	0.35
305.641	0.35
306.011	0.36
306.381	0.36
306.75	0.37
307.12	0.36
307.49	0.36
307.859	0.37
308.229	0.37
308.598	0.38
308.968	0.38
309.337	0.38
309.707	0.38
310.076	0.38
310.445	0.39
310.815	0.39
311.184	0.4
311.553	0.4
311.923	0.41
312.292	0.4
312.661	0.4
313.03	0.4
313.399	0.41
313.768	0.41
314.137	0.41
314.506	0.42
314.875	0.42
315.244	0.43
315.613	0.43
315.982	0.43
316.351	0.42
316.72	0.43
317.089	0.45
317.458	0.43
317.826	0.45
318.195	0.46
318.564	0.46
318.933	0.46
319.301	0.46
319.67	0.46
320.038	0.46
320.407	0.46
320.775	0.48
321.144	0.47
321.512	0.48
321.881	0.49
322.249	0.47
322.618	0.48
322.986	0.48
323.354	0.47
323.723	0.49
324.091	0.49
324.459	0.5
324.827	0.48
325.195	0.5
325.564	0.52
325.932	0.5
326.3	0.5
326.668	0.51
327.036	0.52
327.404	0.51
327.772	0.52
328.14	0.51
328.508	0.51
328.875	0.54
329.243	0.54
329.611	0.55
329.979	0.54
330.346	0.54
330.714	0.53
331.082	0.53
331.449	0.53
331.817	0.54
332.185	0.54
332.552	0.54
332.92	0.54
333.287	0.55
333.655	0.55
334.022	0.57
334.389	0.57
334.757	0.57
335.124	0.56
335.491	0.56
335.859	0.57
336.226	0.57
336.593	0.56
336.96	0.57
337.327	0.57
337.695	0.58
338.062	0.58
338.429	0.58
338.796	0.59
339.163	0.58
339.53	0.59
339.897	0.59
340.263	0.59
340.63	0.58
340.997	0.59
341.364	0.59
341.731	0.58
342.097	0.59
342.464	0.58
342.831	0.59
343.197	0.6
343.564	0.6
343.931	0.59
344.297	0.58
344.664	0.59
345.03	0.6
345.396	0.59
345.763	0.59
346.129	0.59
346.496	0.59
346.862	0.6
347.228	0.59
347.594	0.58
347.961	0.59
348.327	0.59
348.693	0.6
349.059	0.59
349.425	0.59
349.791	0.6
350.157	0.58
350.523	0.58
350.889	0.6
351.255	0.6
351.621	0.59
351.987	0.58
352.353	0.59
352.719	0.59
353.084	0.58
353.45	0.57
353.816	0.58
354.181	0.58
354.547	0.59
354.913	0.57
355.278	0.56
355.644	0.58
356.009	0.58
356.375	0.56
356.74	0.56
357.106	0.56
357.471	0.56
357.836	0.54
358.202	0.55
358.567	0.55
358.932	0.55
359.297	0.55
359.663	0.55
360.028	0.54
360.393	0.55
360.758	0.54
361.123	0.53
361.488	0.53
361.853	0.53
362.218	0.54
362.583	0.52
362.948	0.51
363.312	0.5
363.677	0.49
364.042	0.51
364.407	0.49
364.772	0.49
365.136	0.49
365.501	0.48
365.865	0.49
366.23	0.5
366.595	0.48
366.959	0.48
367.324	0.48
367.688	0.46
368.052	0.47
368.417	0.46
368.781	0.45
369.145	0.46
369.51	0.45
369.874	0.44
370.238	0.44
370.602	0.42
370.967	0.42
371.331	0.43
371.695	0.44
372.059	0.43
372.423	0.43
372.787	0.42
373.151	0.42
373.515	0.42
373.878	0.41
374.242	0.4
374.606	0.39
374.97	0.39
375.334	0.38
375.697	0.37
376.061	0.38
376.425	0.37
376.788	0.36
377.152	0.38
377.515	0.37
377.879	0.37
378.242	0.36
378.606	0.34
378.969	0.34
379.333	0.34
379.696	0.34
380.059	0.32
380.422	0.33
380.786	0.32
381.149	0.31
381.512	0.31
381.875	0.29
382.238	0.3
382.601	0.3
382.964	0.28
383.327	0.28
383.69	0.28
384.053	0.27
384.416	0.28
384.779	0.28
385.142	0.26
385.504	0.27
385.867	0.24
386.23	0.24
386.593	0.25
386.955	0.25
387.318	0.24
387.68	0.24
388.043	0.22
388.405	0.23
388.768	0.23
389.13	0.21
389.493	0.22
389.855	0.23
390.217	0.22
390.58	0.22
390.942	0.2
391.304	0.2
391.666	0.2
392.028	0.2
392.391	0.19
392.753	0.19
393.115	0.19
393.477	0.19
393.839	0.19
394.201	0.19
394.563	0.2
394.924	0.19
395.286	0.19
395.648	0.18
396.01	0.18
396.371	0.19
396.733	0.17
397.095	0.17
397.456	0.18
397.818	0.17
398.18	0.18
398.541	0.16
398.903	0.17
399.264	0.16
399.625	0.17
399.987	0.17
400.348	0.17
400.709	0.17
401.071	0.17
401.432	0.17
401.793	0.18
402.154	0.16
402.515	0.16
402.876	0.17
403.238	0.16
403.599	0.16
403.96	0.16
404.32	0.16
404.681	0.17
405.042	0.16
405.403	0.17
405.764	0.16
406.125	0.17
406.485	0.16
406.846	0.17
407.207	0.16
407.567	0.16
407.928	0.16
408.288	0.17
408.649	0.16
409.009	0.16
409.37	0.16
409.73	0.16
410.091	0.15
410.451	0.15
410.811	0.14
411.171	0.14
411.532	0.14
411.892	0.14
412.252	0.14
412.612	0.15
412.972	0.16
413.332	0.15
413.692	0.15
414.052	0.16
414.412	0.16
414.772	0.16
415.132	0.16
415.492	0.17
415.851	0.15
416.211	0.17
416.571	0.16
416.931	0.16
417.29	0.17
417.65	0.16
418.009	0.17
418.369	0.16
418.728	0.16
419.088	0.16
419.447	0.16
419.807	0.16
420.166	0.15
420.525	0.16
420.884	0.16
421.244	0.16
421.603	0.16
421.962	0.15
422.321	0.16
422.68	0.16
423.039	0.16
423.398	0.15
423.757	0.16
424.116	0.16
424.475	0.16
424.834	0.17
425.193	0.16
425.551	0.14
425.91	0.15
426.269	0.16
426.628	0.15
426.986	0.15
427.345	0.16
427.703	0.16
428.062	0.17
428.42	0.15
428.779	0.17
429.137	0.17
429.496	0.16
429.854	0.16
430.212	0.16
430.57	0.17
430.929	0.16
431.287	0.15
431.645	0.15
432.003	0.15
432.361	0.15
432.719	0.15
433.077	0.15
433.435	0.15
433.793	0.16
434.151	0.14
434.509	0.15
434.866	0.16
435.224	0.15
435.582	0.16
435.94	0.16
436.297	0.17
436.655	0.14
437.012	0.14
437.37	0.16
437.727	0.16
438.085	0.15
438.442	0.12
438.8	0.15
439.157	0.13
439.514	0.15
439.872	0.14
440.229	0.14
440.586	0.15
440.943	0.14
441.3	0.12
441.657	0.14
442.014	0.13
442.371	0.15
442.728	0.14
443.085	0.15
443.442	0.13
443.799	0.12
444.156	0.14
444.513	0.13
444.869	0.14
445.226	0.14
445.583	0.15
445.939	0.14
446.296	0.14
446.652	0.14
447.009	0.13
447.365	0.13
447.722	0.12
448.078	0.12
448.434	0.12
448.791	0.13
449.147	0.12
449.503	0.11
449.859	0.12
450.215	0.12
450.571	0.11
450.928	0.12
451.284	0.12
451.64	0.11
451.995	0.11
452.351	0.11
452.707	0.11
453.063	0.12
453.419	0.12
453.775	0.11
454.13	0.11
454.486	0.1
454.842	0.1
455.197	0.1
455.553	0.1
455.908	0.09
456.264	0.11
456.619	0.1
456.975	0.11
457.33	0.1
457.685	0.09
458.04	0.09
458.396	0.09
458.751	0.1
459.106	0.1
459.461	0.09
459.816	0.09
460.171	0.09
460.526	0.09
460.881	0.08
461.236	0.08
461.591	0.08
461.946	0.08
462.301	0.09
462.655	0.07
463.01	0.07
463.365	0.07
463.719	0.06
464.074	0.07
464.428	0.07
464.783	0.07
465.137	0.05
465.492	0.06
465.846	0.07
466.201	0.06
466.555	0.07
466.909	0.06
467.263	0.05
467.618	0.05
467.972	0.05
468.326	0.05
468.68	0.05
469.034	0.05
469.388	0.04
469.742	0.05
470.096	0.05
470.45	0.04
470.804	0.05
471.157	0.04
471.511	0.04
471.865	0.04
472.218	0.04
472.572	0.04
472.926	0.04
473.279	0.03
473.633	0.03
473.986	0.03
474.34	0.03
474.693	0.02
475.046	0.03
475.4	0.01
475.753	0.03
476.106	0.02
476.459	0.03
476.812	0.02
477.165	0.02
477.519	0.02
477.872	0.02
478.224	0.02
478.577	0.03
478.93	0.03
479.283	0.04
479.636	0
479.989	0.02
480.341	0.01
480.694	0.02
481.047	0.02
481.399	0.01
481.752	0.01
482.104	0.02
482.457	0.01
482.809	0.01
483.162	0.01
483.514	0.01
483.866	0.01
484.219	0.01
484.571	0.01
484.923	0.01
485.275	0.01
485.627	0.01
485.979	0.01
486.331	0.01
486.683	0.02
487.035	0.01
487.387	0.01
487.739	0.01
488.091	0.01
488.443	0.01
488.794	0
489.146	-0
489.498	0.01
489.849	-0
490.201	-0
490.552	0
490.904	0
491.255	0
491.607	0.01
491.958	0.01
492.309	0
492.661	-0
493.012	0.01
493.363	0.01
493.714	0
494.065	-0
494.416	0.01
494.767	0
495.118	-0
495.469	0.01
495.82	0.01
496.171	0.01
496.522	-0.01
496.872	0.01
497.223	-0
497.574	-0.01
497.924	0.01
498.275	0.03
498.626	0.01
498.976	-0.01
499.327	-0.01
499.677	0
500.027	0
500.378	-0.01
500.728	-0.02
501.078	-0.01
501.428	-0.01
501.779	-0.02
502.129	-0.02
502.479	-0.01
502.829	-0.01
503.179	-0.01
503.529	-0
503.879	-0.01
504.229	-0
504.578	-0.02
504.928	-0.01
505.278	-0.01
505.628	-0.01
505.977	-0.01
506.327	-0.02
506.676	-0.02
507.026	-0.01
507.375	-0.02
507.725	-0.02
508.074	-0.02
508.424	-0.02
508.773	-0.03
509.122	-0.03
509.471	-0.01
509.82	-0.01
510.17	-0.01
510.519	-0.02
510.868	-0.03
511.217	-0
511.566	-0.01
511.915	-0.01
512.263	-0.02
512.612	0.01
512.961	-0.02
513.31	-0.01
513.659	-0.01
514.007	-0.02
514.356	-0.03
514.704	-0.02
515.053	-0.02
515.401	-0.02
515.75	-0.01
516.098	-0.02
516.447	-0.02
516.795	-0.03
517.143	-0.03
517.491	-0.02
517.839	-0.03
518.188	-0.02
518.536	-0.02
518.884	-0.01
519.232	-0.02
519.58	-0.02
519.928	-0.01
520.275	-0.02
520.623	-0.02
520.971	-0.02
521.319	-0.03
521.666	-0.05
522.014	-0.02
522.362	-0.03
522.709	-0.03
523.057	-0.04
523.404	-0.02
523.752	-0.02
524.099	-0.03
524.446	-0.02
524.794	-0.04
525.141	-0.02
525.488	-0.02
525.835	-0.04
526.182	-0.03
526.529	-0.02
526.876	-0.03
527.223	-0.03
527.57	-0.02
527.917	-0.02
528.264	-0.03
528.611	-0.03
528.958	-0.02
529.304	-0.03
529.651	-0.03
529.998	-0.03
530.344	-0.04
530.691	-0.03
531.037	-0.04
531.384	-0.02
531.73	-0.03
532.076	-0.04
532.423	-0.03
532.769	-0.02
533.115	-0.02
533.461	-0.04
533.807	-0.03
534.154	-0.02
534.5	-0.01
534.846	-0.02
535.192	-0.02
535.537	-0.03
535.883	-0.03
536.229	-0.03
536.575	-0.02
536.921	-0.02
537.266	-0.03
537.612	-0.03
537.957	-0.01
538.303	-0.05
538.649	-0.03
538.994	-0.03
539.339	-0.03
539.685	-0.03
540.03	-0.03
540.375	-0.03
540.721	-0.03
541.066	-0.03
541.411	-0.03
541.756	-0.04
542.101	-0.02
542.446	-0.02
542.791	-0.02
543.136	-0.03
543.481	-0.04
543.825	-0.03
544.17	-0.04
544.515	-0.02
544.86	-0.03
545.204	-0.04
545.549	-0.03
545.893	-0.04
546.238	-0.04
546.582	-0.03
546.927	-0.04
547.271	-0.04
547.615	-0.04
547.96	-0.03
548.304	-0.04
548.648	-0.04
548.992	-0.03
549.336	-0.04
549.68	-0.02
550.024	-0.04
550.368	-0.03
550.712	-0.04
551.056	-0.03
551.4	-0.02
551.743	-0.03
552.087	-0.01
552.431	-0.03
552.774	-0.01
553.118	-0.04
553.462	-0.03
553.805	-0.03
554.148	-0.03
554.492	-0.03
554.835	-0.04
555.178	-0.02
555.522	-0.04
555.865	-0.02
556.208	-0.03
556.551	-0.04
556.894	-0.05
557.237	-0.03
557.58	-0.04
557.923	-0.05
558.266	-0.04
558.609	-0.04
558.952	-0.04
559.294	-0.02
559.637	-0.04
559.98	-0.03
560.322	-0.03
560.665	-0.04
561.007	-0.02
561.35	-0.04
561.692	-0.03
562.034	-0.03
562.377	-0.03
562.719	-0.03
563.061	-0.03
563.403	-0.03
563.745	-0.03
564.088	-0.02
564.43	-0.03
564.772	-0.03
565.113	-0.03
565.455	-0.03
565.797	-0.02
566.139	-0.03
566.481	-0.02
566.822	-0.03
567.164	-0.02
567.506	-0.02
567.847	-0.03
568.189	-0.02
568.53	-0.02
568.872	-0.03
569.213	-0.02
569.554	-0.03
569.895	-0.02
570.237	-0.04
570.578	-0.03
570.919	-0.04
571.26	-0.03
571.601	-0.03
571.942	-0.03
572.283	-0.03
572.624	-0.03
572.965	-0.01
573.306	-0.03
573.646	-0.03
573.987	-0.04
574.328	-0.04
574.668	-0.03
575.009	-0.04
575.349	-0.03
575.69	-0.03
576.03	-0.03
576.37	-0.03
576.711	-0.03
577.051	-0.03
577.391	-0.02
577.731	-0.04
578.072	-0.03
578.412	-0.02
578.752	-0.03
579.092	-0.03
579.431	-0.03
579.771	-0.03
580.111	-0.01
580.451	-0.02
580.791	-0.03
581.13	-0.02
581.47	-0.02
581.81	-0.03
582.149	-0.04
582.489	-0.04
582.828	-0.02
583.167	-0.03
583.507	-0.02
583.846	-0.03
584.185	-0.02
584.525	-0.03
584.864	-0.03
585.203	-0.03
585.542	-0.03
585.881	-0.03
586.22	-0.02
586.559	-0.03
586.898	-0.03
587.236	-0.04
587.575	-0.03
587.914	-0.04
588.252	-0.03
588.591	-0.03
588.93	-0.03
589.268	-0.04
589.607	-0.03
589.945	-0.03
590.283	-0.03
590.622	-0.03
590.96	-0.03
591.298	-0.04
591.636	-0.03
591.974	-0.04
592.313	-0.03
592.651	-0.03
592.989	-0.04
593.326	-0.04
593.664	-0.04
594.002	-0.04
594.34	-0.03
594.678	-0.04
595.015	-0.03
595.353	-0.02
595.691	-0.03
596.028	-0.03
596.366	-0.04
596.703	-0.04
597.04	-0.03
597.378	-0.02
597.715	-0.04
598.052	-0.04
598.389	-0.04
598.726	-0.04
599.064	-0.04
599.401	-0.04
599.738	-0.04
600.074	-0.04
600.411	-0.04
600.748	-0.04
601.085	-0.03
601.422	-0.04
601.758	-0.02
602.095	-0.02
602.432	-0.01
602.768	-0.03
603.105	-0.02
603.441	-0.03
603.777	-0.02
604.114	-0.02
604.45	-0.03
604.786	-0.02
605.122	-0.03
605.459	-0.03
605.795	-0.03
606.131	-0.02
606.467	-0.03
606.803	-0.04
607.139	-0.03
607.474	-0.02
607.81	-0.03
608.146	-0.04
608.482	-0.03
608.817	-0.03
609.153	-0.03
609.488	-0.04
609.824	-0.04
610.159	-0.05
610.495	-0.04
610.83	-0.04
611.165	-0.03
611.5	-0.05
611.836	-0.04
612.171	-0.03
612.506	-0.04
612.841	-0.04
613.176	-0.04
613.511	-0.04
613.845	-0.04
614.18	-0.03
614.515	-0.04
614.85	-0.03
615.184	-0.04
615.519	-0.03
615.854	-0.04
616.188	-0.04
616.523	-0.03
616.857	-0.03
617.191	-0.02
617.526	-0.02
617.86	-0.04
618.194	-0.04
618.528	-0.04
618.862	-0.05
619.196	-0.04
619.53	-0.03
619.864	-0.05
620.198	-0.03
620.532	-0.03
620.866	-0.04
621.2	-0.03
621.533	-0.04
621.867	-0.04
622.201	-0.03
622.534	-0.03
622.868	-0.03
623.201	-0.04
623.534	-0.03
623.868	-0.03
624.201	-0.03
624.534	-0.02
624.868	-0.03
625.201	-0.02
625.534	-0.03
625.867	-0.03
626.2	-0.04
626.533	-0.03
626.865	-0.05
627.198	-0.04
627.531	-0.05
627.864	-0.04
628.196	-0.04
628.529	-0.05
628.862	-0.04
629.194	-0.03
629.527	-0.04
629.859	-0.05
630.191	-0.03
630.524	-0.05
630.856	-0.05
631.188	-0.04
631.52	-0.05
631.852	-0.04
632.184	-0.04
632.516	-0.03
632.848	-0.05
633.18	-0.05
633.512	-0.04
633.844	-0.05
634.175	-0.05
634.507	-0.05
634.839	-0.05
635.17	-0.03
635.502	-0.04
635.833	-0.05
636.165	-0.04
636.496	-0.04
636.827	-0.04
637.159	-0.04
637.49	-0.04
637.821	-0.04
638.152	-0.03
638.483	-0.02
638.814	-0.04
639.145	-0.05
639.476	-0.04
639.807	-0.05
640.137	-0.06
640.468	-0.04
640.799	-0.05
641.129	-0.05
641.46	-0.05
641.791	-0.06
642.121	-0.05
642.451	-0.05
642.782	-0.05
643.112	-0.05
643.442	-0.05
643.773	-0.05
644.103	-0.05
644.433	-0.03
644.763	-0.04
645.093	-0.03
645.423	-0.04
645.753	-0.03
646.082	-0.06
646.412	-0.04
646.742	-0.05
647.072	-0.05
647.401	-0.03
647.731	-0.04
648.06	-0.04
648.39	-0.05
648.719	-0.05
649.048	-0.05
649.378	-0.03
649.707	-0.04
650.036	-0.04
650.365	-0.04
650.694	-0.04
651.023	-0.04
651.352	-0.04
651.681	-0.04
652.01	-0.03
652.339	-0.04
652.668	-0.04
652.996	-0.03
653.325	-0.04
653.654	-0.04
653.982	-0.03
654.311	-0.04
654.639	-0.04
654.967	-0.03
655.296	-0.04
655.624	-0.05
655.952	-0.06
656.28	-0.06
656.609	-0.05
656.937	-0.05
657.265	-0.03
657.593	-0.02
657.92	-0.01
658.248	-0.02
658.576	-0.02
658.904	-0.03
659.231	-0.03
659.559	-0.04
659.887	-0.02
660.214	-0.03
660.542	-0.03
660.869	-0.04
661.196	-0.03
661.524	-0.05
661.851	-0.03
662.178	-0.04
662.505	-0.04
662.832	-0.04
663.159	-0.05
663.486	-0.05
663.813	-0.04
664.14	-0.04
664.467	-0.03
664.794	-0.03
665.12	-0.04
665.447	-0.03
665.774	-0.04
666.1	-0.04
666.427	-0.06
666.753	-0.04
667.079	-0.05
667.406	-0.04
667.732	-0.04
668.058	-0.03
668.384	-0.04
668.71	-0.05
669.036	-0.05
669.362	-0.03
669.688	-0.04
670.014	-0.05
670.34	-0.04
670.666	-0.05
670.991	-0.04
671.317	-0.04
671.643	-0.05
671.968	-0.05
672.294	-0.06
672.619	-0.07
672.945	-0.06
673.27	-0.05
673.595	-0.05
673.92	-0.06
674.246	-0.06
674.571	-0.05
674.896	-0.06
675.221	-0.06
675.546	-0.06
675.87	-0.05
676.195	-0.06
676.52	-0.06
676.845	-0.04
677.169	-0.04
677.494	-0.04
677.819	-0.04
678.143	-0.03
678.468	-0.03
678.792	-0.04
679.116	-0.04
679.44	-0.04
679.765	-0.03
680.089	-0.04
680.413	-0.04
680.737	-0.04
681.061	-0.04
681.385	-0.04
681.709	-0.05
682.033	-0.04
682.356	-0.04
682.68	-0.04
683.004	-0.05
683.327	-0.05
683.651	-0.05
683.974	-0.04
684.298	-0.06
684.621	-0.04
684.944	-0.06
685.268	-0.06
685.591	-0.05
685.914	-0.05
686.237	-0.06
686.56	-0.04
686.883	-0.05
687.206	-0.05
687.529	-0.05
687.852	-0.05
688.175	-0.05
688.497	-0.05
688.82	-0.05
689.142	-0.05
689.465	-0.06
689.787	-0.05
690.11	-0.06
690.432	-0.07
690.755	-0.07
691.077	-0.06
691.399	-0.07
691.721	-0.07
692.043	-0.05
692.365	-0.05
692.687	-0.05
693.009	-0.06
693.331	-0.05
693.653	-0.05
693.974	-0.06
694.296	-0.06
694.618	-0.06
694.939	-0.06
695.261	-0.06
695.582	-0.05
695.904	-0.06
696.225	-0.07
696.546	-0.05
696.868	-0.06
697.189	-0.05
697.51	-0.05
697.831	-0.05
698.152	-0.05
698.473	-0.04
698.794	-0.05
699.114	-0.04
699.435	-0.06
699.756	-0.06
700.077	-0.06
700.397	-0.06
700.718	-0.05
701.038	-0.04
701.359	-0.05
701.679	-0.04
701.999	-0.05
702.32	-0.06
702.64	-0.05
702.96	-0.05
703.28	-0.06
703.6	-0.04
703.92	-0.06
704.24	-0.06
704.56	-0.06
704.879	-0.05
705.199	-0.06
705.519	-0.06
705.838	-0.07
706.158	-0.06
706.478	-0.05
706.797	-0.06
707.116	-0.05
707.436	-0.05
707.755	-0.05
708.074	-0.05
708.393	-0.05
708.712	-0.04
709.031	-0.05
709.35	-0.04
709.669	-0.05
709.988	-0.04
710.307	-0.04
710.626	-0.04
710.944	-0.04
711.263	-0.05
711.582	-0.07
711.9	-0.05
712.219	-0.05
712.537	-0.05
712.855	-0.06
713.174	-0.05
713.492	-0.04
713.81	-0.05
714.128	-0.05
714.446	-0.05
714.764	-0.06
715.082	-0.05
715.4	-0.05
715.718	-0.03
716.035	-0.03
716.353	-0.03
716.671	-0.05
716.988	-0.05
717.306	-0.04
717.623	-0.05
717.941	-0.05
718.258	-0.05
718.575	-0.05
718.893	-0.05
719.21	-0.05
719.527	-0.04
719.844	-0.06
720.161	-0.06
720.478	-0.06
720.795	-0.06
721.112	-0.07
721.428	-0.06
721.745	-0.06
722.062	-0.06
722.378	-0.07
722.695	-0.05
723.011	-0.06
723.328	-0.06
723.644	-0.06
723.96	-0.05
724.276	-0.05
724.593	-0.06
724.909	-0.05
725.225	-0.06
725.541	-0.07
725.857	-0.06
726.173	-0.05
726.488	-0.06
726.804	-0.06
727.12	-0.06
727.435	-0.05
727.751	-0.07
728.067	-0.05
728.382	-0.05
728.697	-0.05
729.013	-0.05
729.328	-0.05
729.643	-0.05
729.958	-0.06
730.273	-0.05
730.588	-0.05
730.903	-0.05
731.218	-0.04
731.533	-0.04
731.848	-0.04
732.163	-0.04
732.477	-0.04
732.792	-0.04
733.107	-0.03
733.421	-0.04
733.736	-0.04
734.05	-0.05
734.364	-0.02
734.678	-0.04
734.993	-0.03
735.307	-0.04
735.621	-0.03
735.935	-0.03
736.249	-0.03
736.563	-0.03
736.877	-0.03
737.19	-0.04
737.504	-0.03
737.818	-0.03
738.131	-0.03
738.445	-0.03
738.758	-0.03
739.072	-0.05
739.385	-0.04
739.698	-0.03
740.012	-0.04
740.325	-0.02
740.638	-0.04
740.951	-0.05
741.264	-0.04
741.577	-0.04
741.89	-0.06
742.203	-0.04
742.515	-0.04
742.828	-0.04
743.141	-0.04
743.453	-0.04
743.766	-0.04
744.078	-0.04
744.391	-0.06
744.703	-0.05
745.015	-0.04
745.327	-0.03
745.639	-0.03
745.952	-0.04
746.264	-0.04
746.575	-0.04
746.887	-0.03
747.199	-0.04
747.511	-0.04
747.823	-0.05
748.134	-0.05
748.446	-0.05
748.757	-0.05
749.069	-0.06
749.38	-0.05
749.692	-0.06
750.003	-0.05
750.314	-0.05
750.625	-0.05
750.936	-0.05
751.248	-0.04
751.559	-0.04
751.869	-0.05
752.18	-0.04
752.491	-0.06
752.802	-0.05
753.112	-0.06
753.423	-0.05
753.734	-0.04
754.044	-0.05
754.355	-0.04
754.665	-0.05
754.975	-0.06
755.285	-0.04
755.596	-0.03
755.906	-0.02
756.216	-0.03
756.526	-0.02
756.836	-0.02
757.146	-0.01
757.455	-0.02
757.765	-0.01
758.075	-0.01
758.385	-0.01
758.694	0.01
759.004	-0.01
759.313	0.01
759.622	-0.01
759.932	-0.01
760.241	-0
760.55	0
760.859	-0.01
761.168	-0.01
761.477	-0.03
761.786	-0.03
762.095	-0.04
762.404	-0.04
762.713	-0.03
763.021	-0.04
763.33	-0.04
763.639	-0.03
763.947	-0.03
764.256	-0.03
764.564	-0.03
764.872	-0.02
765.181	-0.02
765.489	-0.01
765.797	-0.01
766.105	-0.01
766.413	-0.02
766.721	-0.04
767.029	-0.02
767.337	-0.02
767.644	-0.04
767.952	-0.03
768.26	-0.03
768.567	-0.03
768.875	-0.02
769.182	-0.04
769.49	-0.03
769.797	-0.03
770.104	-0.03
770.411	-0.02
770.718	-0.02
771.026	-0.02
771.333	-0.02
771.639	-0.02
771.946	-0.02
772.253	-0.04
772.56	-0.04
772.867	-0.04
773.173	-0.03
773.48	-0.03
773.786	-0.06
774.093	-0.05
774.399	-0.03
774.705	-0.05
775.012	-0.05
775.318	-0.02
775.624	-0.04
775.93	-0.02
776.236	-0.03
776.542	-0.03
776.848	-0.04
777.154	-0.02
777.459	-0.04
777.765	-0.03
778.071	-0.03
778.376	-0.03
778.682	-0.02
778.987	-0.04
779.292	-0.04
779.598	-0.03
779.903	-0.02
780.208	-0.04
780.513	-0.02
780.818	-0.03
781.123	-0.01
781.428	-0.01
781.733	-0.02
782.038	-0.03
782.343	-0.01
782.647	-0.01
782.952	-0.01
783.256	-0.01
783.561	-0.01
783.865	-0.03
784.17	0.01
784.474	-0.01
784.778	-0.01
785.082	-0.01
785.386	-0.02
785.69	0
785.994	-0
786.298	-0
786.602	-0.01
786.906	0.01
787.209	-0.01
787.513	0.02
787.817	-0.01
788.12	0
788.424	-0
788.727	-0.01
789.03	0.01
789.333	0.03
789.637	0.01
789.94	-0
790.243	-0.01
790.546	0.02
790.849	0.02
791.152	-0.01
791.454	0
791.757	-0
792.06	0.01
792.362	0
792.665	-0.02
792.967	-0.02
793.27	0.02
793.572	0
793.874	0.01
794.177	0.03
794.479	0.03
794.781	0.02
795.083	0.04
795.385	0.01
795.687	0.03
795.989	0
796.29	0.02
796.592	0.01
796.894	0.01
797.195	0.04
797.497	-0.01
797.798	0.03
798.1	0.01
798.401	0.01
798.702	-0.01
799.003	0
799.304	0.05
799.605	0.02
799.906	0.02
800.207	0.04
800.508	0.02
800.809	0.03
801.11	0.04
801.41	0.04
801.711	0.03
802.011	0.05
802.312	0.04
802.612	0.04
802.913	0.06
803.213	0.05
803.513	0.07
803.813	0.05
804.113	0.02
804.413	0.03
804.713	0.03
805.013	0.04
805.313	0.05
805.613	0.05
805.912	-0
806.212	0.09
806.511	0.02
806.811	0.05
807.11	0.05
807.41	0.07
807.709	0.05
808.008	0.05
808.307	0.02
808.606	0.06
808.905	0.04
809.204	0.06
809.503	0.09
809.802	0.08
810.101	0.04
810.399	0.04
810.698	0.01
810.997	0.04
811.295	-0
811.593	0.06
811.892	0.04
812.19	0.05
812.488	0.05
812.786	0.06
813.084	0.02
813.383	-0.01
813.68	0.03
813.978	0.05
814.276	0.08
814.574	0.1
814.872	0.07
815.169	0.04
815.467	0.08
815.764	0.06
816.062	0.06
816.359	0.03
816.656	0.08
816.954	0.04
817.251	0.04
817.548	0.05
817.845	0.08
818.142	0.1
818.439	0.05
818.735	0.05
819.032	0.07
819.329	0.06
819.626	-0
819.922	-0
820.219	0.03
820.515	0.12
820.811	0.11
821.108	0.03
821.404	0.09
821.7	0.05
821.996	0.04
822.292	0.11
822.588	0.09
822.884	0.07
823.18	-0.01
823.475	0.05
823.771	0.06
824.067	0.02
824.362	0.03
824.658	-0.03
824.953	-0.03
825.249	0.15
825.544	0.01
825.839	0.05
826.134	0.07
826.429	0.1
826.724	0.1
827.019	0.03
827.314	0.02
827.609	0.03
827.904	-0.02
828.198	0.05
828.493	0.08
828.787	-0.02
829.082	0.1
829.376	0.08
829.671	-0.01
829.965	0.06
830.259	0.07
830.553	0.01
830.847	0.03
831.141	-0.02
831.435	0.09
831.729	0.03
832.023	-0.04
832.317	0.04
832.61	0.06
832.904	0.05
833.197	0.09
833.491	0.07
833.784	0.02
834.077	0.01
834.371	0.06
834.664	0.05
834.957	-0.07
835.25	0.03
835.543	0.05
835.836	0.08
836.129	0.01
836.421	0.05
836.714	0.06
837.007	0.04
837.299	0.06
837.592	0
837.884	-0.08
838.177	-0.07
838.469	0
838.761	-0
839.053	0.06
839.345	0.13
839.637	-0.02
839.929	0.02
840.221	-0.06
840.513	0
840.805	-0.01
841.096	-0.01
841.388	0.03
841.68	-0.11
841.971	-0.07
842.262	-0.07
842.554	0.01
842.845	-0.07
843.136	-0.15
843.427	-0.11
843.718	0.16
844.009	0.09
844.3	-0.15
844.591	-0.2
844.882	-0.17
845.173	0.06
845.463	-0.05
845.754	0.08
846.044	0.04
846.335	-0
846.625	0.09
846.915	0.04
847.206	-0.15
847.496	-0.04
847.786	-0.03
848.076	-0.35
848.366	-0.1
848.656	-0.03
848.945	-0.01
849.235	0.02
849.525	-0.16
849.814	0.03
850.104	0.16
850.393	-0.04
850.683	-0.03
850.972	0.05
851.261	0.03
851.551	-0.15
851.84	0.02
852.129	-0.29
852.418	0.11
852.707	0.1
852.995	0.27
853.284	0.12
853.573	-0
853.862	-0.12
854.15	0.13
854.439	-0.11
854.727	-0.7
855.015	0.32
855.304	-0
855.592	-0.21
855.88	-0
856.168	-0.09
856.456	-0.2
856.744	-0.17
857.032	-0.1
857.32	0.21
857.607	0.02
857.895	-0.17
858.183	-0.41
858.47	0.23
858.757	-0
859.045	-0
859.332	-0
859.619	-0.02
859.907	-0.29
860.194	-0.31
860.481	-0
860.768	-0.3
861.054	-0
861.341	0.06
861.628	-0
861.915	-0.57
862.201	0.13
862.488	0.16
862.774	-0
863.061	0.01
863.347	-0.17
863.633	-0
863.919	-0.2
864.205	-0.11
864.491	-0.18
864.777	-0
865.063	-0.07
865.349	0.12
865.635	0.09
865.92	-0.4
866.206	-0.29
866.492	-0
866.777	-0
867.062	0.6
867.348	-0
867.633	-0.2
867.918	-0
868.203	-0
868.488	-0
868.773	-0
869.058	0.26
869.343	0.07
869.628	-0.54
869.912	-0
870.197	-0
870.482	-0
870.766	-0.95
871.05	-0
871.335	-0
871.619	1.36
871.903	-0.29
872.187	-0.32
872.471	0.75
872.755	-1.11
873.039	0.39
873.323	0.27
873.607	0.9
873.89	-0.32
874.174	0.28
874.458	0.36
874.741	-0
875.024	0.34
875.308	0.88
875.591	-0
875.874	0.38
876.157	-0
876.44	-0
876.723	0.89
877.006	0.21
877.289	-0.5
877.572	-0
877.854	0.02
878.137	-0.19
878.42	-0.09
878.702	0.48
878.984	0.37
879.267	0.95
879.549	-0
879.831	-0
880.113	-0.88
880.395	-0
880.677	0.3
880.959	0.4
