Data from c2t_JH05_50uM_Absorbance_11-14-14-006.txt Node
Date: Thu Dec 21 11:14:14 GMT 2017
User: egn-admin
Spectrometer: OFX00224
Trigger mode: 0
Integration Time (sec): 5.000000E-2
Scans to average: 1
Nonlinearity correction enabled: false
Boxcar width: 0
Storing dark spectrum: false
XAxis mode: Wavelengths
Number of Pixels in Spectrum: 2136
>>>>>Begin Spectral Data<<<<<
154.91	-0.04
155.289	1.28
155.669	0.07
156.048	0.92
156.428	-0.18
156.807	0.05
157.186	-0
157.566	-0.28
157.945	-0
158.325	-0.4
158.704	-0
159.083	-0
159.462	0.22
159.842	-0
160.221	-0
160.6	0.04
160.979	-0.54
161.359	-0
161.738	0.2
162.117	-0
162.496	-0
162.875	-0.52
163.254	-0.03
163.633	0.19
164.012	-0
164.391	-0
164.77	-0
165.149	-0
165.528	-0.23
165.907	-0
166.286	0.04
166.665	0.43
167.044	1.02
167.423	-0.26
167.802	-0
168.181	0.6
168.559	-0
168.938	-0
169.317	0.04
169.696	0.21
170.074	0.37
170.453	-0.38
170.832	0.54
171.21	0.19
171.589	0.21
171.968	0.11
172.346	-0
172.725	-0.38
173.103	-0
173.482	0.41
173.861	-0
174.239	-0.52
174.617	-0.23
174.996	-0
175.374	-0
175.753	-0
176.131	-0
176.51	0.12
176.888	0.7
177.266	-0.09
177.645	-0.04
178.023	-0
178.401	-0
178.779	-0
179.158	-0.06
179.536	-0.38
179.914	-0.34
180.292	-0
180.67	0.38
181.048	0.6
181.427	-0.63
181.805	-0
182.183	0.41
182.561	-0
182.939	-0.16
183.317	-0
183.695	-0.22
184.073	-0.08
184.451	-0.18
184.829	-0.04
185.206	0.19
185.584	-0
185.962	-0
186.34	-0
186.718	0.09
187.096	-0
187.473	-0
187.851	-0
188.229	-0.33
188.607	-0
188.984	0.1
189.362	0.06
189.74	-0.08
190.117	0.02
190.495	-0.03
190.872	0.75
191.25	0.23
191.627	-0.23
192.005	0.08
192.382	-0.44
192.76	0.11
193.137	-0.26
193.515	0.3
193.892	0.72
194.269	0.15
194.647	0.19
195.024	0.26
195.401	0.07
195.779	0.18
196.156	0.56
196.533	-0.14
196.91	-0.25
197.288	-0
197.665	-0.7
198.042	-0.04
198.419	0.29
198.796	0.05
199.173	0.22
199.55	-0
199.927	-0.35
200.304	-0.11
200.681	-0.44
201.058	0.46
201.435	0.07
201.812	-0.33
202.189	-0
202.566	0.37
202.943	0.29
203.32	0.08
203.697	0.07
204.073	-0.05
204.45	0.1
204.827	-0.09
205.204	-0
205.58	0.21
205.957	-0.07
206.334	0.02
206.71	0.02
207.087	0.03
207.464	-0.04
207.84	0.19
208.217	0.02
208.593	-0.19
208.97	-0.2
209.346	-0.07
209.723	0.28
210.099	-0.13
210.476	-0.02
210.852	0.14
211.228	-0.21
211.605	0.05
211.981	-0.05
212.357	-0.02
212.733	0.09
213.11	-0.02
213.486	0.29
213.862	-0.18
214.238	-0
214.614	-0.28
214.991	1.01
215.367	-0.02
215.743	-0.03
216.119	-0.03
216.495	-0.14
216.871	-0
217.247	0.38
217.623	-0.04
217.999	-0.26
218.375	0.17
218.751	0.2
219.127	0.41
219.502	0.02
219.878	-0.09
220.254	-0.04
220.63	-0.04
221.006	0.02
221.381	0.39
221.757	0.22
222.133	0.11
222.508	0.08
222.884	0.19
223.26	-0.05
223.635	-0.08
224.011	0.15
224.386	0.24
224.762	-0.22
225.137	0.58
225.513	0.14
225.888	-0.51
226.264	0.08
226.639	0.07
227.014	0.43
227.39	0.2
227.765	-0.04
228.14	0.16
228.516	0.41
228.891	-0.13
229.266	-0.06
229.641	-0
230.017	0.01
230.392	0.12
230.767	-0.35
231.142	-0.05
231.517	0.16
231.892	0.13
232.267	0.1
232.642	0.08
233.017	0.32
233.392	0.34
233.767	0.14
234.142	-0.15
234.517	0.15
234.892	0.15
235.267	0.19
235.641	-0.04
236.016	-0.07
236.391	-0.07
236.766	0.01
237.14	0.31
237.515	0.03
237.89	0.11
238.264	0.07
238.639	-0.1
239.014	0.1
239.388	0.05
239.763	0.03
240.137	0.19
240.512	0.2
240.886	0.2
241.261	0.21
241.635	-0.02
242.009	0.26
242.384	0.12
242.758	-0
243.132	0.04
243.507	0.06
243.881	0.47
244.255	-0.04
244.629	0.06
245.004	1.09
245.378	0.22
245.752	0.6
246.126	-0.1
246.5	0.22
246.874	0.23
247.248	0.11
247.622	0.23
247.996	0.19
248.37	0.15
248.744	0.46
249.118	0.06
249.492	-0
249.866	0.09
250.24	0.13
250.613	0.13
250.987	0.1
251.361	0.18
251.735	-0.04
252.108	0.15
252.482	0.17
252.856	0.43
253.229	0.17
253.603	0.04
253.977	0.01
254.35	0.07
254.724	0.21
255.097	0.33
255.471	0.17
255.844	0.2
256.218	0.21
256.591	0.37
256.964	0.32
257.338	0.33
257.711	0.36
258.084	0.33
258.458	0.28
258.831	0.26
259.204	0.31
259.577	0.28
259.95	0.2
260.323	0.4
260.697	0.2
261.07	0.31
261.443	0.28
261.816	0.37
262.189	0.17
262.562	0.28
262.935	0.38
263.308	0.33
263.68	0.2
264.053	0.3
264.426	0.36
264.799	0.32
265.172	0.29
265.545	0.29
265.917	0.31
266.29	0.3
266.663	0.27
267.035	0.31
267.408	0.3
267.781	0.28
268.153	0.25
268.526	0.26
268.898	0.25
269.271	0.27
269.643	0.22
270.016	0.26
270.388	0.25
270.76	0.2
271.133	0.23
271.505	0.2
271.877	0.2
272.25	0.22
272.622	0.21
272.994	0.21
273.366	0.2
273.739	0.21
274.111	0.19
274.483	0.19
274.855	0.21
275.227	0.21
275.599	0.2
275.971	0.19
276.343	0.19
276.715	0.17
277.087	0.2
277.459	0.2
277.831	0.2
278.203	0.19
278.574	0.2
278.946	0.17
279.318	0.2
279.69	0.21
280.061	0.2
280.433	0.2
280.805	0.2
281.176	0.21
281.548	0.2
281.92	0.2
282.291	0.21
282.663	0.21
283.034	0.21
283.406	0.21
283.777	0.22
284.148	0.22
284.52	0.23
284.891	0.22
285.262	0.23
285.634	0.23
286.005	0.24
286.376	0.24
286.747	0.24
287.119	0.24
287.49	0.25
287.861	0.27
288.232	0.25
288.603	0.26
288.974	0.27
289.345	0.25
289.716	0.29
290.087	0.27
290.458	0.28
290.829	0.27
291.2	0.27
291.571	0.29
291.941	0.28
292.312	0.28
292.683	0.28
293.054	0.29
293.424	0.3
293.795	0.29
294.166	0.3
294.536	0.3
294.907	0.31
295.277	0.29
295.648	0.31
296.018	0.31
296.389	0.32
296.759	0.3
297.13	0.31
297.5	0.31
297.871	0.32
298.241	0.32
298.611	0.31
298.981	0.32
299.352	0.32
299.722	0.33
300.092	0.33
300.462	0.33
300.832	0.33
301.202	0.32
301.573	0.35
301.943	0.34
302.313	0.34
302.683	0.34
303.053	0.35
303.422	0.36
303.792	0.35
304.162	0.35
304.532	0.36
304.902	0.36
305.272	0.36
305.641	0.36
306.011	0.37
306.381	0.38
306.75	0.37
307.12	0.37
307.49	0.37
307.859	0.37
308.229	0.38
308.598	0.38
308.968	0.37
309.337	0.38
309.707	0.37
310.076	0.38
310.445	0.39
310.815	0.37
311.184	0.38
311.553	0.38
311.923	0.39
312.292	0.38
312.661	0.37
313.03	0.39
313.399	0.39
313.768	0.38
314.137	0.38
314.506	0.37
314.875	0.38
315.244	0.37
315.613	0.37
315.982	0.38
316.351	0.38
316.72	0.38
317.089	0.38
317.458	0.37
317.826	0.38
318.195	0.38
318.564	0.38
318.933	0.37
319.301	0.36
319.67	0.37
320.038	0.37
320.407	0.36
320.775	0.36
321.144	0.37
321.512	0.36
321.881	0.36
322.249	0.36
322.618	0.35
322.986	0.36
323.354	0.35
323.723	0.35
324.091	0.35
324.459	0.35
324.827	0.34
325.195	0.35
325.564	0.35
325.932	0.34
326.3	0.33
326.668	0.32
327.036	0.32
327.404	0.32
327.772	0.32
328.14	0.32
328.508	0.31
328.875	0.32
329.243	0.33
329.611	0.33
329.979	0.33
330.346	0.32
330.714	0.29
331.082	0.29
331.449	0.29
331.817	0.29
332.185	0.27
332.552	0.29
332.92	0.28
333.287	0.28
333.655	0.28
334.022	0.28
334.389	0.28
334.757	0.27
335.124	0.26
335.491	0.27
335.859	0.27
336.226	0.25
336.593	0.25
336.96	0.24
337.327	0.24
337.695	0.23
338.062	0.23
338.429	0.24
338.796	0.23
339.163	0.22
339.53	0.22
339.897	0.22
340.263	0.23
340.63	0.21
340.997	0.2
341.364	0.21
341.731	0.2
342.097	0.2
342.464	0.18
342.831	0.19
343.197	0.19
343.564	0.18
343.931	0.17
344.297	0.17
344.664	0.17
345.03	0.16
345.396	0.17
345.763	0.16
346.129	0.15
346.496	0.15
346.862	0.15
347.228	0.14
347.594	0.13
347.961	0.13
348.327	0.13
348.693	0.13
349.059	0.13
349.425	0.14
349.791	0.12
350.157	0.12
350.523	0.12
350.889	0.12
351.255	0.12
351.621	0.12
351.987	0.11
352.353	0.11
352.719	0.11
353.084	0.1
353.45	0.1
353.816	0.1
354.181	0.1
354.547	0.1
354.913	0.09
355.278	0.08
355.644	0.07
356.009	0.08
356.375	0.08
356.74	0.07
357.106	0.08
357.471	0.07
357.836	0.06
358.202	0.07
358.567	0.06
358.932	0.06
359.297	0.06
359.663	0.07
360.028	0.07
360.393	0.06
360.758	0.05
361.123	0.05
361.488	0.06
361.853	0.06
362.218	0.06
362.583	0.05
362.948	0.05
363.312	0.05
363.677	0.05
364.042	0.06
364.407	0.04
364.772	0.05
365.136	0.04
365.501	0.04
365.865	0.05
366.23	0.04
366.595	0.04
366.959	0.04
367.324	0.04
367.688	0.04
368.052	0.03
368.417	0.04
368.781	0.03
369.145	0.04
369.51	0.02
369.874	0.03
370.238	0.03
370.602	0.02
370.967	0.02
371.331	0.03
371.695	0.04
372.059	0.03
372.423	0.03
372.787	0.04
373.151	0.03
373.515	0.03
373.878	0.03
374.242	0.04
374.606	0.02
374.97	0.03
375.334	0.03
375.697	0.03
376.061	0.03
376.425	0.03
376.788	0.04
377.152	0.03
377.515	0.04
377.879	0.04
378.242	0.03
378.606	0.02
378.969	0.04
379.333	0.04
379.696	0.03
380.059	0.03
380.422	0.03
380.786	0.03
381.149	0.02
381.512	0.03
381.875	0.03
382.238	0.03
382.601	0.03
382.964	0.02
383.327	0.03
383.69	0.02
384.053	0.04
384.416	0.03
384.779	0.03
385.142	0.03
385.504	0.03
385.867	0.03
386.23	0.02
386.593	0.03
386.955	0.04
387.318	0.03
387.68	0.03
388.043	0.03
388.405	0.03
388.768	0.03
389.13	0.03
389.493	0.04
389.855	0.04
390.217	0.04
390.58	0.04
390.942	0.04
391.304	0.05
391.666	0.05
392.028	0.05
392.391	0.04
392.753	0.04
393.115	0.04
393.477	0.04
393.839	0.04
394.201	0.04
394.563	0.06
394.924	0.05
395.286	0.06
395.648	0.06
396.01	0.05
396.371	0.05
396.733	0.05
397.095	0.05
397.456	0.06
397.818	0.06
398.18	0.05
398.541	0.05
398.903	0.06
399.264	0.06
399.625	0.06
399.987	0.06
400.348	0.06
400.709	0.06
401.071	0.07
401.432	0.07
401.793	0.07
402.154	0.06
402.515	0.07
402.876	0.06
403.238	0.07
403.599	0.08
403.96	0.08
404.32	0.08
404.681	0.09
405.042	0.08
405.403	0.07
405.764	0.08
406.125	0.11
406.485	0.09
406.846	0.1
407.207	0.1
407.567	0.09
407.928	0.1
408.288	0.1
408.649	0.11
409.009	0.09
409.37	0.1
409.73	0.09
410.091	0.09
410.451	0.08
410.811	0.09
411.171	0.1
411.532	0.08
411.892	0.1
412.252	0.09
412.612	0.1
412.972	0.1
413.332	0.1
413.692	0.1
414.052	0.11
414.412	0.11
414.772	0.12
415.132	0.12
415.492	0.12
415.851	0.11
416.211	0.12
416.571	0.12
416.931	0.12
417.29	0.12
417.65	0.13
418.009	0.13
418.369	0.12
418.728	0.12
419.088	0.13
419.447	0.13
419.807	0.12
420.166	0.12
420.525	0.13
420.884	0.14
421.244	0.13
421.603	0.14
421.962	0.12
422.321	0.13
422.68	0.14
423.039	0.14
423.398	0.13
423.757	0.12
424.116	0.15
424.475	0.14
424.834	0.15
425.193	0.14
425.551	0.13
425.91	0.14
426.269	0.15
426.628	0.16
426.986	0.13
427.345	0.15
427.703	0.15
428.062	0.16
428.42	0.16
428.779	0.14
429.137	0.16
429.496	0.16
429.854	0.16
430.212	0.16
430.57	0.16
430.929	0.16
431.287	0.16
431.645	0.15
432.003	0.16
432.361	0.16
432.719	0.15
433.077	0.15
433.435	0.15
433.793	0.15
434.151	0.14
434.509	0.15
434.866	0.16
435.224	0.16
435.582	0.16
435.94	0.17
436.297	0.16
436.655	0.15
437.012	0.17
437.37	0.16
437.727	0.17
438.085	0.16
438.442	0.15
438.8	0.16
439.157	0.14
439.514	0.15
439.872	0.16
440.229	0.16
440.586	0.16
440.943	0.17
441.3	0.15
441.657	0.16
442.014	0.16
442.371	0.17
442.728	0.17
443.085	0.17
443.442	0.16
443.799	0.16
444.156	0.15
444.513	0.16
444.869	0.17
445.226	0.16
445.583	0.16
445.939	0.17
446.296	0.16
446.652	0.17
447.009	0.17
447.365	0.16
447.722	0.15
448.078	0.17
448.434	0.17
448.791	0.16
449.147	0.17
449.503	0.17
449.859	0.16
450.215	0.16
450.571	0.17
450.928	0.16
451.284	0.17
451.64	0.16
451.995	0.17
452.351	0.17
452.707	0.17
453.063	0.18
453.419	0.17
453.775	0.17
454.13	0.18
454.486	0.19
454.842	0.18
455.197	0.18
455.553	0.18
455.908	0.18
456.264	0.19
456.619	0.19
456.975	0.2
457.33	0.19
457.685	0.21
458.04	0.2
458.396	0.19
458.751	0.2
459.106	0.22
459.461	0.22
459.816	0.21
460.171	0.22
460.526	0.22
460.881	0.22
461.236	0.23
461.591	0.23
461.946	0.24
462.301	0.24
462.655	0.26
463.01	0.27
463.365	0.27
463.719	0.27
464.074	0.27
464.428	0.27
464.783	0.28
465.137	0.26
465.492	0.26
465.846	0.27
466.201	0.27
466.555	0.27
466.909	0.28
467.263	0.29
467.618	0.29
467.972	0.3
468.326	0.31
468.68	0.31
469.034	0.3
469.388	0.29
469.742	0.31
470.096	0.31
470.45	0.31
470.804	0.31
471.157	0.31
471.511	0.3
471.865	0.31
472.218	0.3
472.572	0.31
472.926	0.28
473.279	0.29
473.633	0.27
473.986	0.28
474.34	0.27
474.693	0.26
475.046	0.26
475.4	0.25
475.753	0.24
476.106	0.23
476.459	0.23
476.812	0.23
477.165	0.21
477.519	0.22
477.872	0.22
478.224	0.2
478.577	0.2
478.93	0.21
479.283	0.21
479.636	0.18
479.989	0.19
480.341	0.17
480.694	0.17
481.047	0.18
481.399	0.16
481.752	0.16
482.104	0.15
482.457	0.15
482.809	0.14
483.162	0.14
483.514	0.14
483.866	0.14
484.219	0.14
484.571	0.14
484.923	0.14
485.275	0.13
485.627	0.13
485.979	0.11
486.331	0.11
486.683	0.1
487.035	0.11
487.387	0.11
487.739	0.11
488.091	0.12
488.443	0.1
488.794	0.11
489.146	0.1
489.498	0.11
489.849	0.1
490.201	0.09
490.552	0.09
490.904	0.08
491.255	0.08
491.607	0.1
491.958	0.1
492.309	0.08
492.661	0.09
493.012	0.07
493.363	0.08
493.714	0.07
494.065	0.06
494.416	0.07
494.767	0.07
495.118	0.05
495.469	0.07
495.82	0.07
496.171	0.06
496.522	0.06
496.872	0.06
497.223	0.05
497.574	0.04
497.924	0.06
498.275	0.08
498.626	0.05
498.976	0.04
499.327	0.04
499.677	0.05
500.027	0.05
500.378	0.03
500.728	0.02
501.078	0.02
501.428	0.03
501.779	0.01
502.129	0
502.479	0.02
502.829	0.03
503.179	0.02
503.529	0.02
503.879	0.02
504.229	0.02
504.578	0.01
504.928	0.03
505.278	0.02
505.628	0.01
505.977	0.01
506.327	0.02
506.676	0.01
507.026	0.02
507.375	-0
507.725	0.01
508.074	0.02
508.424	0.01
508.773	0
509.122	-0.01
509.471	-0.01
509.82	-0
510.17	-0
510.519	-0.01
510.868	-0.01
511.217	0.02
511.566	-0
511.915	0
512.263	-0.01
512.612	0.02
512.961	0
513.31	0.01
513.659	-0.01
514.007	-0.02
514.356	0
514.704	-0.01
515.053	-0
515.401	0
515.75	-0
516.098	-0
516.447	-0.01
516.795	-0.03
517.143	-0
517.491	-0.01
517.839	-0.02
518.188	-0.01
518.536	-0.03
518.884	-0
519.232	-0.02
519.58	-0.03
519.928	0
520.275	-0.01
520.623	-0.01
520.971	-0.01
521.319	-0.01
521.666	-0.01
522.014	-0.02
522.362	-0.02
522.709	-0.02
523.057	-0.01
523.404	-0
523.752	-0.01
524.099	-0.03
524.446	-0.02
524.794	-0.03
525.141	-0.02
525.488	-0.03
525.835	-0.03
526.182	-0.03
526.529	-0.01
526.876	-0.02
527.223	-0.02
527.57	-0.01
527.917	-0.01
528.264	-0.02
528.611	-0.03
528.958	-0.03
529.304	-0.03
529.651	-0.02
529.998	-0.01
530.344	-0.03
530.691	-0.01
531.037	-0.02
531.384	-0.02
531.73	-0.02
532.076	-0.02
532.423	-0.03
532.769	-0.02
533.115	-0.01
533.461	-0.03
533.807	-0.02
534.154	-0.02
534.5	-0.01
534.846	-0.02
535.192	-0.03
535.537	-0.03
535.883	-0.03
536.229	-0.02
536.575	-0.01
536.921	-0.02
537.266	-0.03
537.612	-0.02
537.957	-0.01
538.303	-0.03
538.649	-0.03
538.994	-0.04
539.339	-0.03
539.685	-0.02
540.03	-0.03
540.375	-0.02
540.721	-0.03
541.066	-0.03
541.411	-0.02
541.756	-0.03
542.101	-0.03
542.446	-0.02
542.791	-0.02
543.136	-0.03
543.481	-0.02
543.825	-0.03
544.17	-0.05
544.515	-0.03
544.86	-0.03
545.204	-0.02
545.549	-0.03
545.893	-0.04
546.238	-0.03
546.582	-0.02
546.927	-0.04
547.271	-0.02
547.615	-0.04
547.96	-0.04
548.304	-0.03
548.648	-0.03
548.992	-0.03
549.336	-0.02
549.68	-0.03
550.024	-0.04
550.368	-0.03
550.712	-0.04
551.056	-0.03
551.4	-0.04
551.743	-0.03
552.087	-0.01
552.431	-0.03
552.774	-0.03
553.118	-0.03
553.462	-0.02
553.805	-0.03
554.148	-0.02
554.492	-0.02
554.835	-0.03
555.178	-0.01
555.522	-0.03
555.865	-0.02
556.208	-0.03
556.551	-0.03
556.894	-0.04
557.237	-0.02
557.58	-0.02
557.923	-0.04
558.266	-0.02
558.609	-0.02
558.952	-0.04
559.294	-0.02
559.637	-0.03
559.98	-0.03
560.322	-0.02
560.665	-0.03
561.007	-0.02
561.35	-0.05
561.692	-0.02
562.034	-0.03
562.377	-0.03
562.719	-0.03
563.061	-0.03
563.403	-0.03
563.745	-0.03
564.088	-0.02
564.43	-0.02
564.772	-0.02
565.113	-0.02
565.455	-0.03
565.797	-0.02
566.139	-0.03
566.481	-0.03
566.822	-0.03
567.164	-0.02
567.506	-0.04
567.847	-0.03
568.189	-0.02
568.53	-0.04
568.872	-0.03
569.213	-0.02
569.554	-0.03
569.895	-0.03
570.237	-0.04
570.578	-0.03
570.919	-0.04
571.26	-0.03
571.601	-0.03
571.942	-0.03
572.283	-0.03
572.624	-0.02
572.965	-0.03
573.306	-0.03
573.646	-0.02
573.987	-0.03
574.328	-0.04
574.668	-0.03
575.009	-0.03
575.349	-0.02
575.69	-0.01
576.03	-0.03
576.37	-0.02
576.711	-0.03
577.051	-0.03
577.391	-0.02
577.731	-0.03
578.072	-0.02
578.412	-0.03
578.752	-0.02
579.092	-0.03
579.431	-0.02
579.771	-0.03
580.111	-0.01
580.451	-0.03
580.791	-0.03
581.13	-0.02
581.47	-0.04
581.81	-0.03
582.149	-0.04
582.489	-0.04
582.828	-0.02
583.167	-0.03
583.507	-0.02
583.846	-0.03
584.185	-0.02
584.525	-0.02
584.864	-0.02
585.203	-0.04
585.542	-0.02
585.881	-0.03
586.22	-0.02
586.559	-0.03
586.898	-0.03
587.236	-0.03
587.575	-0.03
587.914	-0.03
588.252	-0.03
588.591	-0.03
588.93	-0.03
589.268	-0.04
589.607	-0.03
589.945	-0.03
590.283	-0.03
590.622	-0.03
590.96	-0.03
591.298	-0.03
591.636	-0.02
591.974	-0.04
592.313	-0.02
592.651	-0.03
592.989	-0.04
593.326	-0.03
593.664	-0.03
594.002	-0.03
594.34	-0.03
594.678	-0.04
595.015	-0.03
595.353	-0.03
595.691	-0.03
596.028	-0.04
596.366	-0.03
596.703	-0.04
597.04	-0.03
597.378	-0.02
597.715	-0.05
598.052	-0.03
598.389	-0.05
598.726	-0.04
599.064	-0.04
599.401	-0.04
599.738	-0.05
600.074	-0.03
600.411	-0.04
600.748	-0.03
601.085	-0.03
601.422	-0.03
601.758	-0.02
602.095	-0.02
602.432	-0.03
602.768	-0.03
603.105	-0.03
603.441	-0.03
603.777	-0.03
604.114	-0.02
604.45	-0.03
604.786	-0.02
605.122	-0.03
605.459	-0.02
605.795	-0.02
606.131	-0.01
606.467	-0.03
606.803	-0.03
607.139	-0.03
607.474	-0.03
607.81	-0.02
608.146	-0.04
608.482	-0.03
608.817	-0.03
609.153	-0.02
609.488	-0.04
609.824	-0.03
610.159	-0.04
610.495	-0.04
610.83	-0.03
611.165	-0.04
611.5	-0.04
611.836	-0.03
612.171	-0.03
612.506	-0.04
612.841	-0.03
613.176	-0.03
613.511	-0.03
613.845	-0.04
614.18	-0.03
614.515	-0.03
614.85	-0.04
615.184	-0.03
615.519	-0.03
615.854	-0.04
616.188	-0.04
616.523	-0.05
616.857	-0.03
617.191	-0.05
617.526	-0.03
617.86	-0.04
618.194	-0.04
618.528	-0.04
618.862	-0.05
619.196	-0.05
619.53	-0.04
619.864	-0.05
620.198	-0.03
620.532	-0.03
620.866	-0.04
621.2	-0.05
621.533	-0.03
621.867	-0.04
622.201	-0.03
622.534	-0.04
622.868	-0.03
623.201	-0.04
623.534	-0.03
623.868	-0.03
624.201	-0.03
624.534	-0.03
624.868	-0.03
625.201	-0.02
625.534	-0.03
625.867	-0.03
626.2	-0.03
626.533	-0.04
626.865	-0.04
627.198	-0.03
627.531	-0.04
627.864	-0.04
628.196	-0.04
628.529	-0.05
628.862	-0.04
629.194	-0.04
629.527	-0.04
629.859	-0.05
630.191	-0.04
630.524	-0.04
630.856	-0.05
631.188	-0.04
631.52	-0.05
631.852	-0.05
632.184	-0.04
632.516	-0.04
632.848	-0.04
633.18	-0.05
633.512	-0.05
633.844	-0.05
634.175	-0.05
634.507	-0.04
634.839	-0.06
635.17	-0.05
635.502	-0.04
635.833	-0.04
636.165	-0.05
636.496	-0.05
636.827	-0.05
637.159	-0.05
637.49	-0.04
637.821	-0.05
638.152	-0.03
638.483	-0.03
638.814	-0.05
639.145	-0.06
639.476	-0.05
639.807	-0.05
640.137	-0.05
640.468	-0.03
640.799	-0.05
641.129	-0.05
641.46	-0.06
641.791	-0.07
642.121	-0.07
642.451	-0.05
642.782	-0.05
643.112	-0.05
643.442	-0.06
643.773	-0.05
644.103	-0.05
644.433	-0.04
644.763	-0.03
645.093	-0.04
645.423	-0.03
645.753	-0.04
646.082	-0.06
646.412	-0.03
646.742	-0.05
647.072	-0.04
647.401	-0.03
647.731	-0.03
648.06	-0.03
648.39	-0.04
648.719	-0.04
649.048	-0.05
649.378	-0.03
649.707	-0.04
650.036	-0.04
650.365	-0.03
650.694	-0.04
651.023	-0.04
651.352	-0.03
651.681	-0.03
652.01	-0.04
652.339	-0.03
652.668	-0.05
652.996	-0.03
653.325	-0.04
653.654	-0.04
653.982	-0.03
654.311	-0.04
654.639	-0.04
654.967	-0.03
655.296	-0.04
655.624	-0.04
655.952	-0.06
656.28	-0.05
656.609	-0.05
656.937	-0.04
657.265	-0.02
657.593	-0.02
657.92	-0.01
658.248	-0.02
658.576	-0.02
658.904	-0.03
659.231	-0.03
659.559	-0.03
659.887	-0.03
660.214	-0.03
660.542	-0.03
660.869	-0.04
661.196	-0.05
661.524	-0.05
661.851	-0.04
662.178	-0.04
662.505	-0.05
662.832	-0.06
663.159	-0.06
663.486	-0.05
663.813	-0.04
664.14	-0.05
664.467	-0.04
664.794	-0.04
665.12	-0.04
665.447	-0.05
665.774	-0.05
666.1	-0.06
666.427	-0.07
666.753	-0.05
667.079	-0.07
667.406	-0.04
667.732	-0.04
668.058	-0.04
668.384	-0.05
668.71	-0.03
669.036	-0.04
669.362	-0.04
669.688	-0.05
670.014	-0.04
670.34	-0.04
670.666	-0.05
670.991	-0.04
671.317	-0.04
671.643	-0.06
671.968	-0.06
672.294	-0.06
672.619	-0.06
672.945	-0.06
673.27	-0.05
673.595	-0.04
673.92	-0.06
674.246	-0.06
674.571	-0.05
674.896	-0.05
675.221	-0.05
675.546	-0.05
675.87	-0.05
676.195	-0.05
676.52	-0.04
676.845	-0.04
677.169	-0.04
677.494	-0.03
677.819	-0.04
678.143	-0.03
678.468	-0.03
678.792	-0.05
679.116	-0.05
679.44	-0.05
679.765	-0.05
680.089	-0.05
680.413	-0.06
680.737	-0.05
681.061	-0.05
681.385	-0.05
681.709	-0.05
682.033	-0.05
682.356	-0.06
682.68	-0.05
683.004	-0.04
683.327	-0.04
683.651	-0.04
683.974	-0.05
684.298	-0.05
684.621	-0.04
684.944	-0.04
685.268	-0.05
685.591	-0.03
685.914	-0.04
686.237	-0.03
686.56	-0.03
686.883	-0.04
687.206	-0.05
687.529	-0.04
687.852	-0.05
688.175	-0.05
688.497	-0.05
688.82	-0.05
689.142	-0.06
689.465	-0.06
689.787	-0.05
690.11	-0.06
690.432	-0.07
690.755	-0.07
691.077	-0.07
691.399	-0.06
691.721	-0.06
692.043	-0.05
692.365	-0.04
692.687	-0.04
693.009	-0.05
693.331	-0.04
693.653	-0.04
693.974	-0.06
694.296	-0.05
694.618	-0.06
694.939	-0.06
695.261	-0.06
695.582	-0.06
695.904	-0.06
696.225	-0.06
696.546	-0.06
696.868	-0.06
697.189	-0.06
697.51	-0.06
697.831	-0.05
698.152	-0.05
698.473	-0.07
698.794	-0.05
699.114	-0.06
699.435	-0.07
699.756	-0.06
700.077	-0.07
700.397	-0.05
700.718	-0.06
701.038	-0.05
701.359	-0.05
701.679	-0.05
701.999	-0.03
702.32	-0.05
702.64	-0.05
702.96	-0.05
703.28	-0.05
703.6	-0.04
703.92	-0.04
704.24	-0.05
704.56	-0.05
704.879	-0.05
705.199	-0.05
705.519	-0.05
705.838	-0.06
706.158	-0.05
706.478	-0.05
706.797	-0.05
707.116	-0.05
707.436	-0.04
707.755	-0.04
708.074	-0.05
708.393	-0.04
708.712	-0.04
709.031	-0.05
709.35	-0.04
709.669	-0.05
709.988	-0.04
710.307	-0.05
710.626	-0.05
710.944	-0.04
711.263	-0.06
711.582	-0.06
711.9	-0.06
712.219	-0.05
712.537	-0.05
712.855	-0.05
713.174	-0.04
713.492	-0.04
713.81	-0.05
714.128	-0.05
714.446	-0.06
714.764	-0.05
715.082	-0.04
715.4	-0.05
715.718	-0.04
716.035	-0.04
716.353	-0.03
716.671	-0.05
716.988	-0.05
717.306	-0.06
717.623	-0.06
717.941	-0.07
718.258	-0.07
718.575	-0.06
718.893	-0.06
719.21	-0.06
719.527	-0.06
719.844	-0.07
720.161	-0.07
720.478	-0.06
720.795	-0.07
721.112	-0.06
721.428	-0.06
721.745	-0.06
722.062	-0.06
722.378	-0.06
722.695	-0.05
723.011	-0.06
723.328	-0.06
723.644	-0.06
723.96	-0.05
724.276	-0.06
724.593	-0.05
724.909	-0.05
725.225	-0.07
725.541	-0.06
725.857	-0.06
726.173	-0.07
726.488	-0.07
726.804	-0.07
727.12	-0.06
727.435	-0.06
727.751	-0.06
728.067	-0.07
728.382	-0.07
728.697	-0.05
729.013	-0.05
729.328	-0.05
729.643	-0.05
729.958	-0.06
730.273	-0.05
730.588	-0.06
730.903	-0.05
731.218	-0.06
731.533	-0.05
731.848	-0.05
732.163	-0.05
732.477	-0.05
732.792	-0.05
733.107	-0.05
733.421	-0.06
733.736	-0.05
734.05	-0.06
734.364	-0.04
734.678	-0.06
734.993	-0.06
735.307	-0.06
735.621	-0.05
735.935	-0.05
736.249	-0.04
736.563	-0.04
736.877	-0.06
737.19	-0.06
737.504	-0.05
737.818	-0.05
738.131	-0.05
738.445	-0.05
738.758	-0.05
739.072	-0.07
739.385	-0.06
739.698	-0.06
740.012	-0.06
740.325	-0.05
740.638	-0.05
740.951	-0.05
741.264	-0.06
741.577	-0.05
741.89	-0.06
742.203	-0.04
742.515	-0.04
742.828	-0.04
743.141	-0.03
743.453	-0.04
743.766	-0.03
744.078	-0.05
744.391	-0.03
744.703	-0.04
745.015	-0.04
745.327	-0.02
745.639	-0.04
745.952	-0.04
746.264	-0.04
746.575	-0.05
746.887	-0.04
747.199	-0.06
747.511	-0.06
747.823	-0.06
748.134	-0.07
748.446	-0.06
748.757	-0.07
749.069	-0.07
749.38	-0.07
749.692	-0.06
750.003	-0.07
750.314	-0.06
750.625	-0.07
750.936	-0.07
751.248	-0.06
751.559	-0.06
751.869	-0.07
752.18	-0.04
752.491	-0.07
752.802	-0.07
753.112	-0.07
753.423	-0.07
753.734	-0.06
754.044	-0.08
754.355	-0.06
754.665	-0.08
754.975	-0.07
755.285	-0.07
755.596	-0.06
755.906	-0.06
756.216	-0.07
756.526	-0.07
756.836	-0.05
757.146	-0.04
757.455	-0.05
757.765	-0.05
758.075	-0.05
758.385	-0.03
758.694	-0.03
759.004	-0.04
759.313	-0.03
759.622	-0.04
759.932	-0.04
760.241	-0.03
760.55	-0.03
760.859	-0.04
761.168	-0.04
761.477	-0.05
761.786	-0.06
762.095	-0.06
762.404	-0.07
762.713	-0.05
763.021	-0.05
763.33	-0.05
763.639	-0.04
763.947	-0.04
764.256	-0.04
764.564	-0.04
764.872	-0.02
765.181	-0.03
765.489	-0.03
765.797	-0.02
766.105	-0.03
766.413	-0.03
766.721	-0.04
767.029	-0.03
767.337	-0.03
767.644	-0.05
767.952	-0.04
768.26	-0.02
768.567	-0.04
768.875	-0.03
769.182	-0.05
769.49	-0.06
769.797	-0.04
770.104	-0.05
770.411	-0.04
770.718	-0.05
771.026	-0.04
771.333	-0.04
771.639	-0.03
771.946	-0.03
772.253	-0.04
772.56	-0.04
772.867	-0.05
773.173	-0.04
773.48	-0.03
773.786	-0.05
774.093	-0.02
774.399	-0.04
774.705	-0.04
775.012	-0.04
775.318	-0.02
775.624	-0.03
775.93	-0.03
776.236	-0.01
776.542	-0.02
776.848	-0.02
777.154	-0
777.459	-0.02
777.765	-0.03
778.071	-0.03
778.376	-0.03
778.682	-0.04
778.987	-0.03
779.292	-0.05
779.598	-0.04
779.903	-0.04
780.208	-0.03
780.513	-0.03
780.818	-0.03
781.123	-0.02
781.428	-0.02
781.733	-0.01
782.038	-0.02
782.343	-0.03
782.647	0
782.952	-0.01
783.256	0
783.561	-0.01
783.865	-0.03
784.17	-0.01
784.474	0
784.778	-0
785.082	0.01
785.386	-0.01
785.69	0.01
785.994	0
786.298	0.01
786.602	0
786.906	0
787.209	0.01
787.513	0
787.817	-0.01
788.12	0.02
788.424	0.01
788.727	0.02
789.03	0.01
789.333	0.02
789.637	0
789.94	-0
790.243	-0.02
790.546	0.01
790.849	0
791.152	-0.01
791.454	0
791.757	0.01
792.06	-0.02
792.362	-0.01
792.665	-0.03
792.967	-0.02
793.27	0.02
793.572	0.01
793.874	-0.01
794.177	0.02
794.479	0.04
794.781	0.03
795.083	0.03
795.385	0.01
795.687	0.02
795.989	0.02
796.29	0.01
796.592	-0
796.894	0.03
797.195	0.03
797.497	0.02
797.798	0.01
798.1	0.03
798.401	0.01
798.702	0.02
799.003	0
799.304	0
799.605	0
799.906	0.01
800.207	0.04
800.508	-0.01
800.809	0.04
801.11	0.04
801.41	0.01
801.711	-0.02
802.011	0.03
802.312	0.03
802.612	0.03
802.913	0.05
803.213	0.04
803.513	0.04
803.813	0.01
804.113	0
804.413	0.02
804.713	0.01
805.013	0.02
805.313	0.02
805.613	0
805.912	-0
806.212	0.04
806.511	0
806.811	0.02
807.11	0.02
807.41	0.05
807.709	0
808.008	0.02
808.307	0.03
808.606	0.08
808.905	0.02
809.204	0.09
809.503	0.05
809.802	0.06
810.101	0.06
810.399	0.02
810.698	-0.02
810.997	0.01
811.295	0
811.593	0.09
811.892	0.03
812.19	0.06
812.488	0.03
812.786	0.08
813.084	0
813.383	-0.02
813.68	0.05
813.978	0.07
814.276	0.08
814.574	0.1
814.872	0.12
815.169	0.09
815.467	0.07
815.764	0.05
816.062	0.02
816.359	0.04
816.656	0.06
816.954	0.07
817.251	0.04
817.548	0.05
817.845	0.09
818.142	0.08
818.439	0
818.735	-0.01
819.032	0.1
819.329	-0
819.626	0.02
819.922	0.04
820.219	-0.01
820.515	0.1
820.811	0.03
821.108	0.04
821.404	0.04
821.7	-0.03
821.996	-0.03
822.292	0.11
822.588	0.03
822.884	0.1
823.18	0.04
823.475	0.09
823.771	-0.01
824.067	0.06
824.362	0.01
824.658	0.05
824.953	-0.06
825.249	0.08
825.544	0.06
825.839	0.07
826.134	0.01
826.429	0.14
826.724	0.01
827.019	-0.02
827.314	-0.05
827.609	0.03
827.904	-0.05
828.198	0.04
828.493	0.09
828.787	0.07
829.082	0.08
829.376	0.1
829.671	0.05
829.965	0.03
830.259	0.09
830.553	0.05
830.847	0.05
831.141	0.04
831.435	0.03
831.729	0.15
832.023	0.06
832.317	0.08
832.61	0.04
832.904	0.02
833.197	0.07
833.491	0.07
833.784	-0.04
834.077	0.04
834.371	0.11
834.664	-0.01
834.957	0.05
835.25	0.08
835.543	0.09
835.836	0.14
836.129	0.02
836.421	0.07
836.714	-0.07
837.007	0.04
837.299	0.11
837.592	-0.02
837.884	0.1
838.177	-0.05
838.469	0.04
838.761	0.07
839.053	0.09
839.345	-0.05
839.637	0.01
839.929	-0.02
840.221	0.09
840.513	-0.09
840.805	0.02
841.096	-0.08
841.388	-0.06
841.68	-0.16
841.971	-0.04
842.262	-0.08
842.554	0.06
842.845	0.08
843.136	0.03
843.427	-0.12
843.718	0.12
844.009	0.3
844.3	-0.29
844.591	-0.19
844.882	0.08
845.173	0.15
845.463	-0.05
845.754	-0.09
846.044	-0.02
846.335	0.17
846.625	0.16
846.915	-0.23
847.206	0.07
847.496	-0.31
847.786	-0.35
848.076	-0.19
848.366	0.19
848.656	0.01
848.945	-0.06
849.235	0.09
849.525	-0.16
849.814	0.33
850.104	0.21
850.393	-0.24
850.683	-0
850.972	-0.02
851.261	-0.09
851.551	-0.22
851.84	0.07
852.129	-0.21
852.418	-0.14
852.707	-0.02
852.995	0.02
853.284	0.17
853.573	-0.43
853.862	0.02
854.15	0.28
854.439	-0.23
854.727	-0.65
855.015	0.17
855.304	-0.11
855.592	-0.32
855.88	-0.21
856.168	-0.09
856.456	0.44
856.744	-0.05
857.032	-0.1
857.32	-0.02
857.607	-0.12
857.895	-0.06
858.183	-0.41
858.47	-0.31
858.757	-0
859.045	-0
859.332	-0
859.619	0.1
859.907	-0.15
860.194	-0.23
860.481	0.3
860.768	-0
861.054	-0
861.341	-0.3
861.628	-0
861.915	-0.5
862.201	0.05
862.488	-0.33
862.774	-0
863.061	-0.13
863.347	0.12
863.633	-0
863.919	-0.71
864.205	-0
864.491	0.09
864.777	-0.7
865.063	-0.23
865.349	-0
865.635	-0.16
865.92	-0.57
866.206	-0.4
866.492	-0
866.777	-0
867.062	-0
867.348	-0
867.633	-0.22
867.918	0.56
868.203	-0
868.488	-0
868.773	-0.95
869.058	-0.06
869.343	0.81
869.628	-0
869.912	-0
870.197	-0
870.482	-0
870.766	-0.85
871.05	-0
871.335	-0
871.619	0.76
871.903	0.13
872.187	0.51
872.471	-0
872.755	-0
873.039	-0.12
873.323	-0.06
873.607	-0
873.89	0.38
874.174	0.13
874.458	0.02
874.741	0.81
875.024	-0
875.308	0.19
875.591	0.01
875.874	0.26
876.157	-0
876.44	-0
876.723	0.13
877.006	-0
877.289	-0.76
877.572	0.48
877.854	0.68
878.137	-0.32
878.42	-0.09
878.702	-0.41
878.984	0.15
879.267	-0
879.549	0.4
879.831	-0
880.113	-0.4
880.395	-0
880.677	-0
880.959	0.05
