Data from c2t_JH05_50uM_Absorbance_11-14-41-009.txt Node
Date: Thu Dec 21 11:14:41 GMT 2017
User: egn-admin
Spectrometer: OFX00224
Trigger mode: 0
Integration Time (sec): 5.000000E-2
Scans to average: 1
Nonlinearity correction enabled: false
Boxcar width: 0
Storing dark spectrum: false
XAxis mode: Wavelengths
Number of Pixels in Spectrum: 2136
>>>>>Begin Spectral Data<<<<<
154.91	1.04
155.289	0.58
155.669	0.09
156.048	0.62
156.428	-0
156.807	0.48
157.186	-0.3
157.566	-0.18
157.945	1.36
158.325	-0.98
158.704	-0
159.083	-0
159.462	0.41
159.842	-0
160.221	-0.48
160.6	-0
160.979	-0
161.359	-0
161.738	1.04
162.117	-0.27
162.496	-0
162.875	-1.01
163.254	0.12
163.633	0.19
164.012	-0
164.391	-1.3
164.77	-0
165.149	-0
165.528	0.54
165.907	-0
166.286	-0.14
166.665	0.73
167.044	0.21
167.423	0.34
167.802	-0
168.181	-0
168.559	-0.48
168.938	-0.11
169.317	0.1
169.696	-0.14
170.074	0.32
170.453	-0.56
170.832	-0.39
171.21	0.24
171.589	-0
171.968	-0.32
172.346	0.03
172.725	-0
173.103	0.48
173.482	0.94
173.861	-0
174.239	0.54
174.617	0.37
174.996	-0.34
175.374	-0
175.753	-0
176.131	0.37
176.51	-0
176.888	0.7
177.266	0.22
177.645	-0
178.023	-0
178.401	-0
178.779	-0.04
179.158	0.07
179.536	-0.15
179.914	-0.52
180.292	-0
180.67	0.23
181.048	0.3
181.427	-0.35
181.805	-0
182.183	-0.18
182.561	-0
182.939	0.51
183.317	-0
183.695	-0
184.073	0.22
184.451	-0.48
184.829	-0
185.206	-0.35
185.584	-0.6
185.962	-0
186.34	-0.04
186.718	-0.07
187.096	-0
187.473	-0.02
187.851	-0
188.229	0.07
188.607	0.12
188.984	0.36
189.362	0.34
189.74	0.06
190.117	0.29
190.495	-0.05
190.872	0.81
191.25	1.22
191.627	-0.19
192.005	0.35
192.382	-0.16
192.76	0.03
193.137	1.18
193.515	0.34
193.892	-0
194.269	-0.01
194.647	0.06
195.024	-0
195.401	0.01
195.779	0.13
196.156	0.23
196.533	-0.22
196.91	-0.23
197.288	-0
197.665	-1.8
198.042	0.2
198.419	0.1
198.796	-0
199.173	0.12
199.55	-0.18
199.927	-0.25
200.304	-0.12
200.681	-0.14
201.058	0.58
201.435	0.06
201.812	-0.04
202.189	0.05
202.566	0.17
202.943	0.1
203.32	0.72
203.697	0.01
204.073	0.18
204.45	0.03
204.827	-0.19
205.204	-0
205.58	0.18
205.957	-0.1
206.334	0.11
206.71	0.37
207.087	-0.01
207.464	-0.08
207.84	0.17
208.217	0.12
208.593	0.05
208.97	0.15
209.346	-0.04
209.723	0.19
210.099	-0
210.476	-0.38
210.852	0.63
211.228	0.27
211.605	-0.05
211.981	0.11
212.357	-0
212.733	0.28
213.11	0.42
213.486	0.18
213.862	0.46
214.238	0.02
214.614	-0.09
214.991	0.49
215.367	-0.1
215.743	-0.2
216.119	0.25
216.495	-0.17
216.871	0.13
217.247	0.05
217.623	0.05
217.999	-0.14
218.375	0.27
218.751	0.13
219.127	0.45
219.502	-0.07
219.878	-0.11
220.254	-0.07
220.63	-0.14
221.006	-0.05
221.381	-0.08
221.757	-0.02
222.133	0.17
222.508	0.19
222.884	0.24
223.26	0.01
223.635	0.02
224.011	0.32
224.386	0.32
224.762	0.14
225.137	-0
225.513	0.24
225.888	-0.38
226.264	0.33
226.639	-0
227.014	0.37
227.39	0.12
227.765	1.03
228.14	0.02
228.516	0.38
228.891	0.05
229.266	0.34
229.641	-0
230.017	0.02
230.392	0.12
230.767	-0.23
231.142	-0.12
231.517	0.08
231.892	0.5
232.267	0.23
232.642	-0.04
233.017	0.15
233.392	0.54
233.767	0.24
234.142	-0.11
234.517	0.11
234.892	0.45
235.267	0.42
235.641	0.13
236.016	0.36
236.391	0.07
236.766	-0.08
237.14	0.06
237.515	0.24
237.89	0.46
238.264	1.84
238.639	0.88
239.014	0.18
239.388	0.41
239.763	0.32
240.137	0.13
240.512	-0
240.886	0.08
241.261	0.06
241.635	0.06
242.009	0.19
242.384	0.07
242.758	0.05
243.132	0.19
243.507	0.16
243.881	0.15
244.255	0.15
244.629	0.09
245.004	0.97
245.378	0.35
245.752	0.6
246.126	-0.08
246.5	0.21
246.874	0.1
247.248	0.18
247.622	0.38
247.996	0.09
248.37	0.25
248.744	0.4
249.118	-0.11
249.492	-0
249.866	0.42
250.24	0.21
250.613	0.22
250.987	0.13
251.361	0.19
251.735	0.48
252.108	0.08
252.482	0.19
252.856	0.25
253.229	0.25
253.603	0.1
253.977	0.1
254.35	0.07
254.724	0.32
255.097	0.46
255.471	0.13
255.844	0.19
256.218	0.25
256.591	0.26
256.964	0.19
257.338	0.39
257.711	0.31
258.084	0.29
258.458	0.21
258.831	0.39
259.204	0.24
259.577	0.4
259.95	0.23
260.323	0.19
260.697	0.14
261.07	0.23
261.443	0.22
261.816	0.26
262.189	0.16
262.562	0.18
262.935	0.26
263.308	0.18
263.68	0.15
264.053	0.21
264.426	0.24
264.799	0.24
265.172	0.2
265.545	0.18
265.917	0.17
266.29	0.21
266.663	0.16
267.035	0.21
267.408	0.23
267.781	0.17
268.153	0.13
268.526	0.2
268.898	0.17
269.271	0.19
269.643	0.16
270.016	0.22
270.388	0.16
270.76	0.14
271.133	0.16
271.505	0.15
271.877	0.15
272.25	0.16
272.622	0.14
272.994	0.16
273.366	0.14
273.739	0.16
274.111	0.15
274.483	0.14
274.855	0.15
275.227	0.15
275.599	0.17
275.971	0.14
276.343	0.17
276.715	0.15
277.087	0.17
277.459	0.15
277.831	0.15
278.203	0.14
278.574	0.16
278.946	0.15
279.318	0.14
279.69	0.16
280.061	0.15
280.433	0.17
280.805	0.15
281.176	0.15
281.548	0.16
281.92	0.16
282.291	0.17
282.663	0.18
283.034	0.17
283.406	0.18
283.777	0.17
284.148	0.18
284.52	0.19
284.891	0.19
285.262	0.18
285.634	0.19
286.005	0.2
286.376	0.2
286.747	0.2
287.119	0.2
287.49	0.21
287.861	0.2
288.232	0.22
288.603	0.23
288.974	0.23
289.345	0.22
289.716	0.23
290.087	0.24
290.458	0.23
290.829	0.21
291.2	0.23
291.571	0.24
291.941	0.24
292.312	0.23
292.683	0.25
293.054	0.24
293.424	0.24
293.795	0.25
294.166	0.25
294.536	0.25
294.907	0.24
295.277	0.26
295.648	0.27
296.018	0.25
296.389	0.26
296.759	0.27
297.13	0.26
297.5	0.26
297.871	0.26
298.241	0.28
298.611	0.27
298.981	0.29
299.352	0.29
299.722	0.29
300.092	0.3
300.462	0.3
300.832	0.3
301.202	0.29
301.573	0.31
301.943	0.3
302.313	0.32
302.683	0.32
303.053	0.31
303.422	0.32
303.792	0.33
304.162	0.34
304.532	0.34
304.902	0.33
305.272	0.34
305.641	0.36
306.011	0.35
306.381	0.35
306.75	0.35
307.12	0.37
307.49	0.37
307.859	0.36
308.229	0.37
308.598	0.37
308.968	0.4
309.337	0.39
309.707	0.39
310.076	0.39
310.445	0.39
310.815	0.39
311.184	0.4
311.553	0.4
311.923	0.41
312.292	0.41
312.661	0.43
313.03	0.42
313.399	0.43
313.768	0.43
314.137	0.43
314.506	0.45
314.875	0.45
315.244	0.46
315.613	0.46
315.982	0.45
316.351	0.47
316.72	0.46
317.089	0.48
317.458	0.47
317.826	0.47
318.195	0.49
318.564	0.49
318.933	0.5
319.301	0.49
319.67	0.51
320.038	0.52
320.407	0.53
320.775	0.52
321.144	0.53
321.512	0.53
321.881	0.55
322.249	0.55
322.618	0.55
322.986	0.56
323.354	0.54
323.723	0.57
324.091	0.58
324.459	0.58
324.827	0.56
325.195	0.58
325.564	0.58
325.932	0.59
326.3	0.61
326.668	0.6
327.036	0.6
327.404	0.61
327.772	0.62
328.14	0.63
328.508	0.64
328.875	0.64
329.243	0.65
329.611	0.67
329.979	0.66
330.346	0.67
330.714	0.65
331.082	0.64
331.449	0.65
331.817	0.67
332.185	0.65
332.552	0.69
332.92	0.69
333.287	0.7
333.655	0.7
334.022	0.72
334.389	0.72
334.757	0.72
335.124	0.73
335.491	0.72
335.859	0.73
336.226	0.73
336.593	0.75
336.96	0.74
337.327	0.74
337.695	0.75
338.062	0.76
338.429	0.76
338.796	0.77
339.163	0.75
339.53	0.77
339.897	0.77
340.263	0.78
340.63	0.78
340.997	0.78
341.364	0.78
341.731	0.79
342.097	0.79
342.464	0.79
342.831	0.81
343.197	0.79
343.564	0.8
343.931	0.8
344.297	0.8
344.664	0.8
345.03	0.81
345.396	0.81
345.763	0.8
346.129	0.82
346.496	0.83
346.862	0.83
347.228	0.84
347.594	0.8
347.961	0.81
348.327	0.81
348.693	0.82
349.059	0.83
349.425	0.82
349.791	0.83
350.157	0.82
350.523	0.81
350.889	0.84
351.255	0.82
351.621	0.83
351.987	0.83
352.353	0.83
352.719	0.84
353.084	0.83
353.45	0.82
353.816	0.84
354.181	0.83
354.547	0.82
354.913	0.83
355.278	0.79
355.644	0.82
356.009	0.82
356.375	0.81
356.74	0.82
357.106	0.81
357.471	0.8
357.836	0.78
358.202	0.8
358.567	0.8
358.932	0.81
359.297	0.78
359.663	0.8
360.028	0.79
360.393	0.78
360.758	0.79
361.123	0.76
361.488	0.76
361.853	0.77
362.218	0.76
362.583	0.74
362.948	0.72
363.312	0.73
363.677	0.73
364.042	0.74
364.407	0.74
364.772	0.72
365.136	0.72
365.501	0.74
365.865	0.71
366.23	0.71
366.595	0.73
366.959	0.72
367.324	0.7
367.688	0.7
368.052	0.66
368.417	0.67
368.781	0.67
369.145	0.68
369.51	0.65
369.874	0.65
370.238	0.65
370.602	0.64
370.967	0.63
371.331	0.64
371.695	0.64
372.059	0.61
372.423	0.61
372.787	0.6
373.151	0.6
373.515	0.59
373.878	0.6
374.242	0.58
374.606	0.58
374.97	0.58
375.334	0.55
375.697	0.55
376.061	0.56
376.425	0.56
376.788	0.55
377.152	0.54
377.515	0.52
377.879	0.54
378.242	0.53
378.606	0.51
378.969	0.5
379.333	0.51
379.696	0.48
380.059	0.5
380.422	0.48
380.786	0.46
381.149	0.46
381.512	0.46
381.875	0.45
382.238	0.45
382.601	0.43
382.964	0.41
383.327	0.42
383.69	0.4
384.053	0.41
384.416	0.39
384.779	0.39
385.142	0.38
385.504	0.37
385.867	0.37
386.23	0.36
386.593	0.37
386.955	0.36
387.318	0.34
387.68	0.34
388.043	0.33
388.405	0.34
388.768	0.32
389.13	0.32
389.493	0.32
389.855	0.32
390.217	0.3
390.58	0.32
390.942	0.29
391.304	0.29
391.666	0.29
392.028	0.29
392.391	0.28
392.753	0.27
393.115	0.27
393.477	0.27
393.839	0.27
394.201	0.26
394.563	0.28
394.924	0.25
395.286	0.26
395.648	0.25
396.01	0.25
396.371	0.25
396.733	0.24
397.095	0.24
397.456	0.25
397.818	0.23
398.18	0.22
398.541	0.22
398.903	0.24
399.264	0.22
399.625	0.23
399.987	0.23
400.348	0.23
400.709	0.22
401.071	0.22
401.432	0.23
401.793	0.21
402.154	0.2
402.515	0.21
402.876	0.19
403.238	0.21
403.599	0.21
403.96	0.2
404.32	0.19
404.681	0.21
405.042	0.2
405.403	0.2
405.764	0.2
406.125	0.21
406.485	0.21
406.846	0.21
407.207	0.21
407.567	0.2
407.928	0.2
408.288	0.19
408.649	0.2
409.009	0.18
409.37	0.2
409.73	0.18
410.091	0.18
410.451	0.18
410.811	0.17
411.171	0.17
411.532	0.17
411.892	0.18
412.252	0.18
412.612	0.17
412.972	0.18
413.332	0.17
413.692	0.17
414.052	0.18
414.412	0.19
414.772	0.19
415.132	0.18
415.492	0.18
415.851	0.18
416.211	0.18
416.571	0.18
416.931	0.17
417.29	0.19
417.65	0.17
418.009	0.18
418.369	0.17
418.728	0.17
419.088	0.18
419.447	0.17
419.807	0.15
420.166	0.17
420.525	0.19
420.884	0.17
421.244	0.18
421.603	0.17
421.962	0.16
422.321	0.17
422.68	0.17
423.039	0.18
423.398	0.17
423.757	0.17
424.116	0.17
424.475	0.17
424.834	0.16
425.193	0.17
425.551	0.15
425.91	0.15
426.269	0.16
426.628	0.17
426.986	0.15
427.345	0.17
427.703	0.17
428.062	0.17
428.42	0.16
428.779	0.15
429.137	0.17
429.496	0.17
429.854	0.15
430.212	0.18
430.57	0.16
430.929	0.16
431.287	0.15
431.645	0.15
432.003	0.14
432.361	0.16
432.719	0.15
433.077	0.16
433.435	0.15
433.793	0.15
434.151	0.14
434.509	0.14
434.866	0.15
435.224	0.15
435.582	0.15
435.94	0.15
436.297	0.15
436.655	0.13
437.012	0.14
437.37	0.15
437.727	0.14
438.085	0.15
438.442	0.13
438.8	0.15
439.157	0.12
439.514	0.14
439.872	0.14
440.229	0.14
440.586	0.14
440.943	0.14
441.3	0.12
441.657	0.13
442.014	0.13
442.371	0.13
442.728	0.14
443.085	0.14
443.442	0.12
443.799	0.13
444.156	0.12
444.513	0.12
444.869	0.12
445.226	0.13
445.583	0.13
445.939	0.12
446.296	0.12
446.652	0.12
447.009	0.12
447.365	0.11
447.722	0.11
448.078	0.12
448.434	0.12
448.791	0.12
449.147	0.11
449.503	0.1
449.859	0.1
450.215	0.1
450.571	0.11
450.928	0.1
451.284	0.11
451.64	0.11
451.995	0.1
452.351	0.11
452.707	0.09
453.063	0.11
453.419	0.1
453.775	0.09
454.13	0.1
454.486	0.09
454.842	0.1
455.197	0.08
455.553	0.08
455.908	0.09
456.264	0.09
456.619	0.09
456.975	0.09
457.33	0.08
457.685	0.08
458.04	0.08
458.396	0.08
458.751	0.08
459.106	0.08
459.461	0.08
459.816	0.07
460.171	0.07
460.526	0.07
460.881	0.07
461.236	0.07
461.591	0.07
461.946	0.07
462.301	0.05
462.655	0.06
463.01	0.06
463.365	0.06
463.719	0.05
464.074	0.05
464.428	0.05
464.783	0.05
465.137	0.04
465.492	0.04
465.846	0.04
466.201	0.04
466.555	0.05
466.909	0.05
467.263	0.04
467.618	0.04
467.972	0.04
468.326	0.04
468.68	0.03
469.034	0.04
469.388	0.03
469.742	0.03
470.096	0.03
470.45	0.03
470.804	0.02
471.157	0.03
471.511	0.03
471.865	0.02
472.218	0.02
472.572	0.03
472.926	0.01
473.279	0.02
473.633	0.02
473.986	0.03
474.34	0.03
474.693	0.01
475.046	0.02
475.4	0.01
475.753	0.01
476.106	0.01
476.459	0.01
476.812	0.01
477.165	0.01
477.519	0.01
477.872	0.01
478.224	0.01
478.577	0.02
478.93	0.02
479.283	0.02
479.636	-0
479.989	0.01
480.341	-0.01
480.694	0.01
481.047	0.01
481.399	0.01
481.752	0.01
482.104	0
482.457	0.01
482.809	0
483.162	0
483.514	0
483.866	-0.01
484.219	0
484.571	-0.01
484.923	0.01
485.275	0.01
485.627	0
485.979	-0.01
486.331	0
486.683	0
487.035	0
487.387	0.01
487.739	0.01
488.091	0.01
488.443	0
488.794	-0
489.146	-0.01
489.498	-0
489.849	-0.01
490.201	-0.01
490.552	-0
490.904	-0.01
491.255	-0
491.607	-0.01
491.958	-0.01
492.309	-0.01
492.661	-0.01
493.012	-0
493.363	0
493.714	-0.01
494.065	-0.01
494.416	0.01
494.767	-0
495.118	-0.02
495.469	-0.01
495.82	-0
496.171	0
496.522	-0.02
496.872	-0.01
497.223	-0.01
497.574	-0.02
497.924	-0
498.275	0.01
498.626	-0.01
498.976	-0.03
499.327	-0.02
499.677	-0.01
500.027	-0.01
500.378	-0.02
500.728	-0.02
501.078	-0.02
501.428	-0.02
501.779	-0.02
502.129	-0.02
502.479	-0.02
502.829	-0.02
503.179	-0.01
503.529	-0.02
503.879	-0.01
504.229	0.01
504.578	-0.02
504.928	-0
505.278	-0.02
505.628	-0.02
505.977	-0.03
506.327	-0.02
506.676	-0.02
507.026	-0.01
507.375	-0.02
507.725	-0.02
508.074	-0.01
508.424	-0.01
508.773	-0.02
509.122	-0.02
509.471	-0.03
509.82	-0.02
510.17	-0.02
510.519	-0.03
510.868	-0.02
511.217	-0.02
511.566	-0.01
511.915	0
512.263	-0.02
512.612	-0.01
512.961	-0.02
513.31	-0.01
513.659	-0.01
514.007	-0.03
514.356	-0.02
514.704	-0.01
515.053	-0.01
515.401	-0.02
515.75	-0.03
516.098	-0.03
516.447	-0.02
516.795	-0.03
517.143	-0.03
517.491	-0.03
517.839	-0.05
518.188	-0.02
518.536	-0.03
518.884	-0.02
519.232	-0.04
519.58	-0.02
519.928	-0.02
520.275	-0.02
520.623	-0.02
520.971	-0.03
521.319	-0.02
521.666	-0.04
522.014	-0.02
522.362	-0.03
522.709	-0.03
523.057	-0.03
523.404	-0.02
523.752	-0.01
524.099	-0.03
524.446	-0.03
524.794	-0.05
525.141	-0.02
525.488	-0.03
525.835	-0.03
526.182	-0.03
526.529	-0.04
526.876	-0.03
527.223	-0.02
527.57	-0.02
527.917	-0.03
528.264	-0.03
528.611	-0.03
528.958	-0.03
529.304	-0.04
529.651	-0.05
529.998	-0.04
530.344	-0.03
530.691	-0.03
531.037	-0.03
531.384	-0.03
531.73	-0.03
532.076	-0.03
532.423	-0.03
532.769	-0.03
533.115	-0.02
533.461	-0.04
533.807	-0.02
534.154	-0.02
534.5	-0.01
534.846	-0.02
535.192	-0.02
535.537	-0.04
535.883	-0.05
536.229	-0.02
536.575	-0.03
536.921	-0.02
537.266	-0.02
537.612	-0.03
537.957	-0.01
538.303	-0.04
538.649	-0.01
538.994	-0.03
539.339	-0.02
539.685	-0.03
540.03	-0.02
540.375	-0.02
540.721	-0.03
541.066	-0.03
541.411	-0.02
541.756	-0.03
542.101	-0.03
542.446	-0.03
542.791	-0.02
543.136	-0.03
543.481	-0.04
543.825	-0.03
544.17	-0.04
544.515	-0.03
544.86	-0.03
545.204	-0.04
545.549	-0.04
545.893	-0.04
546.238	-0.03
546.582	-0.02
546.927	-0.05
547.271	-0.03
547.615	-0.02
547.96	-0.04
548.304	-0.04
548.648	-0.03
548.992	-0.03
549.336	-0.03
549.68	-0.02
550.024	-0.04
550.368	-0.03
550.712	-0.03
551.056	-0.02
551.4	-0.03
551.743	-0.03
552.087	-0.02
552.431	-0.02
552.774	-0.02
553.118	-0.04
553.462	-0.03
553.805	-0.03
554.148	-0.02
554.492	-0.03
554.835	-0.03
555.178	-0.02
555.522	-0.03
555.865	-0.03
556.208	-0.04
556.551	-0.04
556.894	-0.05
557.237	-0.03
557.58	-0.03
557.923	-0.04
558.266	-0.03
558.609	-0.02
558.952	-0.03
559.294	-0.03
559.637	-0.04
559.98	-0.02
560.322	-0.03
560.665	-0.03
561.007	-0.03
561.35	-0.04
561.692	-0.01
562.034	-0.04
562.377	-0.04
562.719	-0.03
563.061	-0.04
563.403	-0.03
563.745	-0.03
564.088	-0.02
564.43	-0.03
564.772	-0.03
565.113	-0.02
565.455	-0.03
565.797	-0.03
566.139	-0.05
566.481	-0.03
566.822	-0.03
567.164	-0.03
567.506	-0.04
567.847	-0.03
568.189	-0.03
568.53	-0.03
568.872	-0.03
569.213	-0.03
569.554	-0.04
569.895	-0.03
570.237	-0.03
570.578	-0.03
570.919	-0.04
571.26	-0.03
571.601	-0.03
571.942	-0.02
572.283	-0.03
572.624	-0.03
572.965	-0.02
573.306	-0.02
573.646	-0.03
573.987	-0.03
574.328	-0.04
574.668	-0.04
575.009	-0.04
575.349	-0.04
575.69	-0.02
576.03	-0.03
576.37	-0.03
576.711	-0.03
577.051	-0.03
577.391	-0.03
577.731	-0.03
578.072	-0.02
578.412	-0.03
578.752	-0.03
579.092	-0.03
579.431	-0.02
579.771	-0.02
580.111	-0.02
580.451	-0.02
580.791	-0.04
581.13	-0.02
581.47	-0.04
581.81	-0.03
582.149	-0.04
582.489	-0.03
582.828	-0.02
583.167	-0.02
583.507	-0.01
583.846	-0.02
584.185	-0.02
584.525	-0.02
584.864	-0.03
585.203	-0.03
585.542	-0.02
585.881	-0.03
586.22	-0.02
586.559	-0.03
586.898	-0.02
587.236	-0.03
587.575	-0.03
587.914	-0.03
588.252	-0.02
588.591	-0.03
588.93	-0.03
589.268	-0.03
589.607	-0.02
589.945	-0.02
590.283	-0.03
590.622	-0.03
590.96	-0.03
591.298	-0.04
591.636	-0.02
591.974	-0.04
592.313	-0.03
592.651	-0.03
592.989	-0.05
593.326	-0.04
593.664	-0.04
594.002	-0.05
594.34	-0.03
594.678	-0.03
595.015	-0.03
595.353	-0.04
595.691	-0.03
596.028	-0.03
596.366	-0.04
596.703	-0.03
597.04	-0.04
597.378	-0.03
597.715	-0.05
598.052	-0.04
598.389	-0.05
598.726	-0.04
599.064	-0.04
599.401	-0.05
599.738	-0.04
600.074	-0.04
600.411	-0.05
600.748	-0.03
601.085	-0.03
601.422	-0.04
601.758	-0.02
602.095	-0.03
602.432	-0.02
602.768	-0.03
603.105	-0.02
603.441	-0.03
603.777	-0.03
604.114	-0.02
604.45	-0.03
604.786	-0.02
605.122	-0.03
605.459	-0.03
605.795	-0.03
606.131	-0.03
606.467	-0.03
606.803	-0.03
607.139	-0.03
607.474	-0.03
607.81	-0.03
608.146	-0.03
608.482	-0.04
608.817	-0.03
609.153	-0.03
609.488	-0.05
609.824	-0.03
610.159	-0.05
610.495	-0.04
610.83	-0.04
611.165	-0.03
611.5	-0.04
611.836	-0.04
612.171	-0.03
612.506	-0.04
612.841	-0.04
613.176	-0.03
613.511	-0.04
613.845	-0.04
614.18	-0.03
614.515	-0.05
614.85	-0.04
615.184	-0.03
615.519	-0.02
615.854	-0.03
616.188	-0.03
616.523	-0.04
616.857	-0.04
617.191	-0.04
617.526	-0.03
617.86	-0.03
618.194	-0.04
618.528	-0.03
618.862	-0.04
619.196	-0.04
619.53	-0.03
619.864	-0.04
620.198	-0.03
620.532	-0.04
620.866	-0.04
621.2	-0.04
621.533	-0.03
621.867	-0.04
622.201	-0.02
622.534	-0.04
622.868	-0.03
623.201	-0.04
623.534	-0.04
623.868	-0.03
624.201	-0.04
624.534	-0.03
624.868	-0.04
625.201	-0.03
625.534	-0.02
625.867	-0.04
626.2	-0.04
626.533	-0.03
626.865	-0.04
627.198	-0.03
627.531	-0.05
627.864	-0.04
628.196	-0.04
628.529	-0.04
628.862	-0.04
629.194	-0.02
629.527	-0.04
629.859	-0.04
630.191	-0.04
630.524	-0.05
630.856	-0.04
631.188	-0.04
631.52	-0.05
631.852	-0.05
632.184	-0.04
632.516	-0.04
632.848	-0.05
633.18	-0.05
633.512	-0.05
633.844	-0.05
634.175	-0.06
634.507	-0.05
634.839	-0.05
635.17	-0.04
635.502	-0.04
635.833	-0.05
636.165	-0.04
636.496	-0.04
636.827	-0.05
637.159	-0.05
637.49	-0.04
637.821	-0.05
638.152	-0.03
638.483	-0.03
638.814	-0.04
639.145	-0.05
639.476	-0.05
639.807	-0.04
640.137	-0.05
640.468	-0.02
640.799	-0.05
641.129	-0.04
641.46	-0.05
641.791	-0.05
642.121	-0.06
642.451	-0.05
642.782	-0.06
643.112	-0.06
643.442	-0.06
643.773	-0.05
644.103	-0.05
644.433	-0.04
644.763	-0.03
645.093	-0.05
645.423	-0.04
645.753	-0.05
646.082	-0.05
646.412	-0.04
646.742	-0.04
647.072	-0.05
647.401	-0.04
647.731	-0.04
648.06	-0.04
648.39	-0.04
648.719	-0.04
649.048	-0.04
649.378	-0.04
649.707	-0.04
650.036	-0.04
650.365	-0.04
650.694	-0.04
651.023	-0.04
651.352	-0.03
651.681	-0.04
652.01	-0.03
652.339	-0.03
652.668	-0.03
652.996	-0.03
653.325	-0.04
653.654	-0.04
653.982	-0.04
654.311	-0.05
654.639	-0.04
654.967	-0.04
655.296	-0.04
655.624	-0.06
655.952	-0.06
656.28	-0.06
656.609	-0.05
656.937	-0.04
657.265	-0.02
657.593	-0.02
657.92	-0.01
658.248	-0.01
658.576	-0.02
658.904	-0.02
659.231	-0.03
659.559	-0.03
659.887	-0.03
660.214	-0.03
660.542	-0.04
660.869	-0.03
661.196	-0.04
661.524	-0.04
661.851	-0.04
662.178	-0.04
662.505	-0.04
662.832	-0.04
663.159	-0.05
663.486	-0.04
663.813	-0.03
664.14	-0.05
664.467	-0.04
664.794	-0.04
665.12	-0.04
665.447	-0.04
665.774	-0.03
666.1	-0.04
666.427	-0.06
666.753	-0.04
667.079	-0.05
667.406	-0.04
667.732	-0.04
668.058	-0.03
668.384	-0.04
668.71	-0.02
669.036	-0.03
669.362	-0.05
669.688	-0.05
670.014	-0.04
670.34	-0.04
670.666	-0.05
670.991	-0.04
671.317	-0.05
671.643	-0.05
671.968	-0.04
672.294	-0.05
672.619	-0.06
672.945	-0.06
673.27	-0.05
673.595	-0.04
673.92	-0.06
674.246	-0.05
674.571	-0.05
674.896	-0.05
675.221	-0.05
675.546	-0.05
675.87	-0.05
676.195	-0.05
676.52	-0.05
676.845	-0.05
677.169	-0.04
677.494	-0.04
677.819	-0.04
678.143	-0.03
678.468	-0.04
678.792	-0.04
679.116	-0.04
679.44	-0.03
679.765	-0.02
680.089	-0.04
680.413	-0.04
680.737	-0.03
681.061	-0.04
681.385	-0.03
681.709	-0.04
682.033	-0.05
682.356	-0.04
682.68	-0.04
683.004	-0.04
683.327	-0.04
683.651	-0.05
683.974	-0.04
684.298	-0.06
684.621	-0.04
684.944	-0.05
685.268	-0.05
685.591	-0.04
685.914	-0.04
686.237	-0.05
686.56	-0.05
686.883	-0.06
687.206	-0.04
687.529	-0.05
687.852	-0.05
688.175	-0.04
688.497	-0.05
688.82	-0.05
689.142	-0.06
689.465	-0.06
689.787	-0.05
690.11	-0.07
690.432	-0.06
690.755	-0.07
691.077	-0.07
691.399	-0.06
691.721	-0.06
692.043	-0.06
692.365	-0.06
692.687	-0.05
693.009	-0.05
693.331	-0.05
693.653	-0.05
693.974	-0.05
694.296	-0.06
694.618	-0.06
694.939	-0.06
695.261	-0.05
695.582	-0.06
695.904	-0.05
696.225	-0.06
696.546	-0.05
696.868	-0.05
697.189	-0.04
697.51	-0.05
697.831	-0.04
698.152	-0.04
698.473	-0.04
698.794	-0.04
699.114	-0.05
699.435	-0.05
699.756	-0.06
700.077	-0.06
700.397	-0.05
700.718	-0.07
701.038	-0.04
701.359	-0.04
701.679	-0.04
701.999	-0.05
702.32	-0.06
702.64	-0.05
702.96	-0.05
703.28	-0.06
703.6	-0.04
703.92	-0.06
704.24	-0.06
704.56	-0.05
704.879	-0.05
705.199	-0.05
705.519	-0.05
705.838	-0.06
706.158	-0.06
706.478	-0.06
706.797	-0.05
707.116	-0.06
707.436	-0.05
707.755	-0.04
708.074	-0.04
708.393	-0.05
708.712	-0.05
709.031	-0.04
709.35	-0.05
709.669	-0.04
709.988	-0.04
710.307	-0.04
710.626	-0.05
710.944	-0.05
711.263	-0.06
711.582	-0.07
711.9	-0.07
712.219	-0.06
712.537	-0.06
712.855	-0.06
713.174	-0.05
713.492	-0.05
713.81	-0.06
714.128	-0.05
714.446	-0.06
714.764	-0.05
715.082	-0.05
715.4	-0.05
715.718	-0.04
716.035	-0.03
716.353	-0.03
716.671	-0.05
716.988	-0.05
717.306	-0.05
717.623	-0.04
717.941	-0.04
718.258	-0.05
718.575	-0.05
718.893	-0.05
719.21	-0.05
719.527	-0.05
719.844	-0.07
720.161	-0.05
720.478	-0.06
720.795	-0.06
721.112	-0.07
721.428	-0.05
721.745	-0.06
722.062	-0.06
722.378	-0.06
722.695	-0.06
723.011	-0.06
723.328	-0.06
723.644	-0.05
723.96	-0.05
724.276	-0.06
724.593	-0.06
724.909	-0.05
725.225	-0.06
725.541	-0.06
725.857	-0.06
726.173	-0.06
726.488	-0.06
726.804	-0.06
727.12	-0.06
727.435	-0.05
727.751	-0.06
728.067	-0.06
728.382	-0.06
728.697	-0.05
729.013	-0.06
729.328	-0.05
729.643	-0.05
729.958	-0.06
730.273	-0.05
730.588	-0.05
730.903	-0.05
731.218	-0.05
731.533	-0.03
731.848	-0.04
732.163	-0.04
732.477	-0.04
732.792	-0.04
733.107	-0.03
733.421	-0.03
733.736	-0.04
734.05	-0.04
734.364	-0.02
734.678	-0.04
734.993	-0.04
735.307	-0.04
735.621	-0.05
735.935	-0.04
736.249	-0.03
736.563	-0.04
736.877	-0.03
737.19	-0.04
737.504	-0.04
737.818	-0.05
738.131	-0.03
738.445	-0.03
738.758	-0.03
739.072	-0.05
739.385	-0.04
739.698	-0.03
740.012	-0.04
740.325	-0.03
740.638	-0.03
740.951	-0.04
741.264	-0.04
741.577	-0.04
741.89	-0.05
742.203	-0.04
742.515	-0.05
742.828	-0.05
743.141	-0.03
743.453	-0.03
743.766	-0.04
744.078	-0.04
744.391	-0.05
744.703	-0.04
745.015	-0.04
745.327	-0.03
745.639	-0.03
745.952	-0.04
746.264	-0.03
746.575	-0.04
746.887	-0.04
747.199	-0.06
747.511	-0.05
747.823	-0.05
748.134	-0.05
748.446	-0.06
748.757	-0.06
749.069	-0.05
749.38	-0.05
749.692	-0.06
750.003	-0.05
750.314	-0.05
750.625	-0.05
750.936	-0.05
751.248	-0.04
751.559	-0.05
751.869	-0.05
752.18	-0.04
752.491	-0.05
752.802	-0.06
753.112	-0.06
753.423	-0.05
753.734	-0.03
754.044	-0.06
754.355	-0.05
754.665	-0.05
754.975	-0.05
755.285	-0.04
755.596	-0.03
755.906	-0.03
756.216	-0.03
756.526	-0.04
756.836	-0.01
757.146	-0.02
757.455	-0.02
757.765	-0.02
758.075	-0.01
758.385	-0.02
758.694	-0
759.004	-0
759.313	-0
759.622	-0.01
759.932	-0.01
760.241	-0
760.55	-0
760.859	-0.01
761.168	-0.02
761.477	-0.03
761.786	-0.02
762.095	-0.03
762.404	-0.04
762.713	-0.03
763.021	-0.04
763.33	-0.04
763.639	-0.03
763.947	-0.04
764.256	-0.03
764.564	-0.03
764.872	-0.01
765.181	-0.02
765.489	-0.02
765.797	-0.01
766.105	-0.01
766.413	-0.02
766.721	-0.02
767.029	-0.03
767.337	-0.02
767.644	-0.04
767.952	-0.03
768.26	-0.02
768.567	-0.02
768.875	-0.02
769.182	-0.03
769.49	-0.03
769.797	-0.03
770.104	-0.04
770.411	-0.02
770.718	-0.02
771.026	-0.03
771.333	-0
771.639	-0.03
771.946	-0.03
772.253	-0.04
772.56	-0.03
772.867	-0.03
773.173	-0.04
773.48	-0.03
773.786	-0.05
774.093	-0.05
774.399	-0.03
774.705	-0.04
775.012	-0.04
775.318	-0.02
775.624	-0.03
775.93	-0.03
776.236	-0.03
776.542	-0.03
776.848	-0.04
777.154	-0.02
777.459	-0.03
777.765	-0.03
778.071	-0.02
778.376	-0.04
778.682	-0.04
778.987	-0.04
779.292	-0.04
779.598	-0.04
779.903	-0.02
780.208	-0.03
780.513	-0.02
780.818	-0.03
781.123	-0.01
781.428	-0.03
781.733	-0.01
782.038	-0.02
782.343	-0
782.647	-0.01
782.952	0.01
783.256	-0.01
783.561	-0.01
783.865	-0.02
784.17	-0.01
784.474	-0.01
784.778	-0.01
785.082	0.01
785.386	-0.02
785.69	0
785.994	0
786.298	-0.02
786.602	0.01
786.906	0.01
787.209	0
787.513	0.01
787.817	-0.01
788.12	0.01
788.424	0
788.727	0.01
789.03	0.02
789.333	0.03
789.637	0
789.94	0.01
790.243	0
790.546	0.03
790.849	0.02
791.152	0.02
791.454	0.01
791.757	0.02
792.06	-0.01
792.362	-0.02
792.665	-0.04
792.967	-0.01
793.27	-0
793.572	0
793.874	-0
794.177	0.02
794.479	0.02
794.781	0.03
795.083	0.05
795.385	0.02
795.687	0.03
795.989	0.02
796.29	0.03
796.592	0
796.894	0.01
797.195	0.03
797.497	0.02
797.798	0.02
798.1	0.02
798.401	0.02
798.702	0.01
799.003	0.02
799.304	0.03
799.605	0.02
799.906	0.03
800.207	0.03
800.508	0.04
800.809	0.05
801.11	0.04
801.41	-0
801.711	0.05
802.011	0.03
802.312	0.04
802.612	0.06
802.913	0.05
803.213	0.06
803.513	0.06
803.813	0.04
804.113	0.03
804.413	0.05
804.713	0.03
805.013	0.04
805.313	0.05
805.613	0.04
805.912	0.06
806.212	0.06
806.511	0.04
806.811	0.03
807.11	0.04
807.41	0.05
807.709	0.04
808.008	0.04
808.307	-0
808.606	0.1
808.905	-0.01
809.204	0.07
809.503	0.07
809.802	0.1
810.101	0.04
810.399	0.04
810.698	0.02
810.997	0.05
811.295	0
811.593	0.05
811.892	0.02
812.19	0.06
812.488	0.04
812.786	0.07
813.084	0.02
813.383	0.02
813.68	0.01
813.978	0.1
814.276	0.11
814.574	0.1
814.872	0.12
815.169	0.07
815.467	0.03
815.764	0.05
816.062	0.04
816.359	0.08
816.656	0.07
816.954	0.06
817.251	-0.02
817.548	0.03
817.845	0.08
818.142	0.05
818.439	-0.03
818.735	0.04
819.032	0.04
819.329	0.06
819.626	-0
819.922	0.01
820.219	0.02
820.515	0.15
820.811	0.09
821.108	0.02
821.404	0.07
821.7	-0.03
821.996	-0.03
822.292	0.03
822.588	0.08
822.884	0.07
823.18	-0.01
823.475	0.15
823.771	0.09
824.067	0.07
824.362	0.04
824.658	0.05
824.953	-0.01
825.249	0.08
825.544	0.12
825.839	0.13
826.134	0.01
826.429	0.1
826.724	-0.06
827.019	-0.01
827.314	-0.09
827.609	0.03
827.904	-0.01
828.198	0.05
828.493	0.03
828.787	0
829.082	0.07
829.376	0.11
829.671	-0.02
829.965	0.01
830.259	0.06
830.553	0.01
830.847	0.1
831.141	0.05
831.435	-0
831.729	0.13
832.023	-0.08
832.317	0.02
832.61	0.07
832.904	0.02
833.197	0.02
833.491	0.03
833.784	-0.04
834.077	0.02
834.371	-0.04
834.664	0.11
834.957	-0.01
835.25	-0.01
835.543	0
835.836	-0.02
836.129	-0.07
836.421	-0.05
836.714	-0.13
837.007	0.1
837.299	0.06
837.592	-0.07
837.884	-0.07
838.177	0.11
838.469	-0.1
838.761	-0.06
839.053	0.07
839.345	0.04
839.637	0.07
839.929	-0.11
840.221	0.1
840.513	-0.1
840.805	-0
841.096	-0.01
841.388	0.11
841.68	-0.08
841.971	-0.06
842.262	0.03
842.554	0.06
842.845	0.03
843.136	0.04
843.427	-0.2
843.718	-0.08
844.009	-0
844.3	-0.38
844.591	-0.19
844.882	-0.03
845.173	0.12
845.463	-0.06
845.754	-0.29
846.044	0.03
846.335	-0.07
846.625	0.1
846.915	-0.21
847.206	0.1
847.496	-0.31
847.786	-0.11
848.076	-0.41
848.366	-0.03
848.656	-0.06
848.945	0.05
849.235	0.08
849.525	-0.28
849.814	0.38
850.104	-0.09
850.393	-0.19
850.683	0.38
850.972	-0.14
851.261	0.29
851.551	-0.19
851.84	-0.05
852.129	-0.27
852.418	-0.03
852.707	-0.15
852.995	0.3
853.284	0.1
853.573	0.12
853.862	-0.32
854.15	0.18
854.439	-0.22
854.727	-0.66
855.015	-0.03
855.304	-0.1
855.592	0.04
855.88	0.21
856.168	-0.01
856.456	-0.03
856.744	-0.05
857.032	-0.24
857.32	-0.15
857.607	0.06
857.895	-0
858.183	-0.76
858.47	0.18
858.757	0.35
859.045	-0
859.332	-0
859.619	-0.1
859.907	-0.05
860.194	0.24
860.481	0.7
860.768	-0
861.054	-0
861.341	-0
861.628	-0
861.915	-0.46
862.201	0.12
862.488	-0.4
862.774	-0
863.061	-0.08
863.347	0.17
863.633	0.03
863.919	-0
864.205	-0.15
864.491	-0.3
864.777	0.18
865.063	-0.14
865.349	-0
865.635	-0.42
865.92	-0.05
866.206	-0.35
866.492	-0
866.777	-0.45
867.062	-0.88
867.348	0.7
867.633	-0.07
867.918	-0
868.203	-0
868.488	1.18
868.773	-0
869.058	0.11
869.343	-0.43
869.628	-0
869.912	-0
870.197	-0
870.482	-0
870.766	-1.13
871.05	-0
871.335	-0.65
871.619	0.02
871.903	0.15
872.187	-0.48
872.471	-0
872.755	-0
873.039	0.11
873.323	-0
873.607	0.2
873.89	-0.37
874.174	0.28
874.458	0.08
874.741	-0
875.024	-0
875.308	0.19
875.591	0.31
875.874	0.29
876.157	-0
876.44	-0
876.723	-0
877.006	0.94
877.289	-0.69
877.572	-0.41
877.854	0.01
878.137	0.21
878.42	-0
878.702	-0
878.984	0.54
879.267	-0
879.549	-0
879.831	-0.11
880.113	-0
880.395	-0.23
880.677	-0.98
880.959	-0
