Data from c2t_JH05_50uM_Absorbance_11-14-34-026.txt Node
Date: Thu Dec 21 11:14:34 GMT 2017
User: egn-admin
Spectrometer: OFX00224
Trigger mode: 0
Integration Time (sec): 5.000000E-2
Scans to average: 1
Nonlinearity correction enabled: false
Boxcar width: 0
Storing dark spectrum: false
XAxis mode: Wavelengths
Number of Pixels in Spectrum: 2136
>>>>>Begin Spectral Data<<<<<
154.91	0.74
155.289	0.2
155.669	0.39
156.048	0.92
156.428	-0
156.807	0.78
157.186	-0
157.566	-0
157.945	-0
158.325	-0.93
158.704	-0
159.083	-0
159.462	0.02
159.842	-0
160.221	-0.12
160.6	0.12
160.979	-0.74
161.359	-0
161.738	0.56
162.117	-0.41
162.496	-0
162.875	-0.87
163.254	0.02
163.633	-0
164.012	-0.3
164.391	-1.26
164.77	-0
165.149	-0
165.528	0.15
165.907	-0.48
166.286	-0.17
166.665	0.47
167.044	0.72
167.423	-0.07
167.802	-0
168.181	0.9
168.559	-0
168.938	-0
169.317	0.92
169.696	-0.07
170.074	0.48
170.453	0.2
170.832	-0.11
171.21	-0
171.589	0.32
171.968	0.26
172.346	-0
172.725	-0
173.103	-0
173.482	-0.08
173.861	-0
174.239	-0.2
174.617	-0
174.996	-0.79
175.374	-0
175.753	-0.81
176.131	-0.11
176.51	0.23
176.888	-0
177.266	-0.12
177.645	0.12
178.023	-0
178.401	-0
178.779	-0
179.158	0.26
179.536	0.7
179.914	-0.56
180.292	-0
180.67	-0.03
181.048	-0
181.427	-0.4
181.805	0.54
182.183	-0
182.561	-0
182.939	-0.3
183.317	-0
183.695	-0
184.073	-0.51
184.451	0.48
184.829	0.02
185.206	0.37
185.584	0.54
185.962	-0
186.34	0.05
186.718	0.12
187.096	-0
187.473	-0
187.851	-0.12
188.229	-0
188.607	0.23
188.984	0.02
189.362	0.14
189.74	-0.15
190.117	0.1
190.495	0.49
190.872	-0.1
191.25	0.42
191.627	-0.2
192.005	0.09
192.382	0.16
192.76	0.07
193.137	0.18
193.515	0.43
193.892	1.37
194.269	0.26
194.647	0.19
195.024	0.08
195.401	0.55
195.779	0.21
196.156	0.56
196.533	-0.19
196.91	0.23
197.288	-0
197.665	-1.51
198.042	0.27
198.419	-0.17
198.796	0.34
199.173	-0.15
199.55	-0.8
199.927	-0.28
200.304	0.09
200.681	0.9
201.058	0.46
201.435	0.16
201.812	-0.12
202.189	0.22
202.566	0.32
202.943	0.26
203.32	0.17
203.697	0.11
204.073	0.01
204.45	0.93
204.827	0.27
205.204	-0
205.58	0.05
205.957	-0.2
206.334	0.32
206.71	-0
207.087	0.03
207.464	0.09
207.84	0.01
208.217	0.12
208.593	-0.15
208.97	-0.07
209.346	-0.1
209.723	0.1
210.099	0.25
210.476	-0.22
210.852	-0.11
211.228	-0.08
211.605	0.07
211.981	0.15
212.357	-0
212.733	0.31
213.11	-0.07
213.486	0.28
213.862	-0.05
214.238	0.25
214.614	-0.24
214.991	-0.12
215.367	0.35
215.743	-0.06
216.119	0.08
216.495	0.44
216.871	-0.09
217.247	0.17
217.623	0.29
217.999	0.09
218.375	-0.09
218.751	0.39
219.127	0.37
219.502	0.07
219.878	0.61
220.254	-0.14
220.63	0.35
221.006	0.02
221.381	0.11
221.757	0.31
222.133	0.28
222.508	0.16
222.884	0.1
223.26	-0.1
223.635	-0.09
224.011	0.24
224.386	0.03
224.762	0.12
225.137	0.85
225.513	0.22
225.888	-0.51
226.264	0.17
226.639	-0
227.014	-0
227.39	-0.02
227.765	0.16
228.14	0.53
228.516	0.04
228.891	-0.22
229.266	0.21
229.641	-0
230.017	0.11
230.392	0.18
230.767	-0.16
231.142	-0.26
231.517	0.32
231.892	0.11
232.267	0.23
232.642	0.32
233.017	-0
233.392	0.75
233.767	0.34
234.142	-0.05
234.517	0.16
234.892	0.21
235.267	0.37
235.641	-0.05
236.016	-0.01
236.391	0.12
236.766	-0.12
237.14	0.08
237.515	0.32
237.89	-0.02
238.264	0.48
238.639	0.08
239.014	0.38
239.388	0.15
239.763	0.2
240.137	0.12
240.512	-0
240.886	0.41
241.261	0.3
241.635	0.06
242.009	0.49
242.384	0.17
242.758	0.05
243.132	0.18
243.507	0.48
243.881	0.21
244.255	0.11
244.629	0.13
245.004	0.38
245.378	0.45
245.752	0.46
246.126	0.05
246.5	0.1
246.874	0.19
247.248	0.27
247.622	0.04
247.996	0.07
248.37	0.18
248.744	0.38
249.118	0.1
249.492	-0
249.866	0.21
250.24	0.16
250.613	0.13
250.987	0.06
251.361	0.41
251.735	0.04
252.108	0.05
252.482	0.25
252.856	0.73
253.229	0.14
253.603	-0.05
253.977	0.08
254.35	0.11
254.724	0.27
255.097	0.63
255.471	0.28
255.844	0.08
256.218	0.12
256.591	0.18
256.964	0.15
257.338	0.23
257.711	0.19
258.084	0.35
258.458	0.19
258.831	0.36
259.204	0.36
259.577	0.22
259.95	0.14
260.323	0.32
260.697	0.19
261.07	0.22
261.443	0.22
261.816	0.32
262.189	0.23
262.562	0.28
262.935	0.32
263.308	0.2
263.68	0.17
264.053	0.25
264.426	0.24
264.799	0.2
265.172	0.28
265.545	0.23
265.917	0.17
266.29	0.22
266.663	0.2
267.035	0.16
267.408	0.27
267.781	0.18
268.153	0.15
268.526	0.18
268.898	0.16
269.271	0.16
269.643	0.19
270.016	0.2
270.388	0.18
270.76	0.16
271.133	0.18
271.505	0.16
271.877	0.15
272.25	0.18
272.622	0.15
272.994	0.16
273.366	0.14
273.739	0.17
274.111	0.17
274.483	0.16
274.855	0.14
275.227	0.16
275.599	0.16
275.971	0.17
276.343	0.15
276.715	0.15
277.087	0.19
277.459	0.17
277.831	0.16
278.203	0.15
278.574	0.17
278.946	0.15
279.318	0.17
279.69	0.18
280.061	0.16
280.433	0.16
280.805	0.18
281.176	0.17
281.548	0.17
281.92	0.17
282.291	0.16
282.663	0.19
283.034	0.17
283.406	0.18
283.777	0.18
284.148	0.18
284.52	0.2
284.891	0.18
285.262	0.19
285.634	0.19
286.005	0.21
286.376	0.2
286.747	0.2
287.119	0.21
287.49	0.21
287.861	0.23
288.232	0.21
288.603	0.22
288.974	0.23
289.345	0.21
289.716	0.24
290.087	0.23
290.458	0.24
290.829	0.22
291.2	0.23
291.571	0.25
291.941	0.24
292.312	0.24
292.683	0.25
293.054	0.24
293.424	0.26
293.795	0.25
294.166	0.26
294.536	0.26
294.907	0.26
295.277	0.27
295.648	0.27
296.018	0.27
296.389	0.26
296.759	0.27
297.13	0.27
297.5	0.26
297.871	0.28
298.241	0.28
298.611	0.28
298.981	0.28
299.352	0.29
299.722	0.29
300.092	0.28
300.462	0.3
300.832	0.3
301.202	0.29
301.573	0.32
301.943	0.31
302.313	0.31
302.683	0.32
303.053	0.31
303.422	0.32
303.792	0.32
304.162	0.33
304.532	0.33
304.902	0.34
305.272	0.34
305.641	0.35
306.011	0.35
306.381	0.35
306.75	0.35
307.12	0.36
307.49	0.37
307.859	0.38
308.229	0.38
308.598	0.38
308.968	0.39
309.337	0.39
309.707	0.38
310.076	0.39
310.445	0.39
310.815	0.39
311.184	0.39
311.553	0.4
311.923	0.41
312.292	0.41
312.661	0.42
313.03	0.42
313.399	0.42
313.768	0.43
314.137	0.43
314.506	0.43
314.875	0.43
315.244	0.44
315.613	0.45
315.982	0.44
316.351	0.45
316.72	0.46
317.089	0.47
317.458	0.45
317.826	0.48
318.195	0.48
318.564	0.5
318.933	0.47
319.301	0.47
319.67	0.48
320.038	0.5
320.407	0.49
320.775	0.5
321.144	0.5
321.512	0.51
321.881	0.52
322.249	0.52
322.618	0.53
322.986	0.54
323.354	0.53
323.723	0.54
324.091	0.54
324.459	0.56
324.827	0.54
325.195	0.55
325.564	0.56
325.932	0.55
326.3	0.56
326.668	0.57
327.036	0.57
327.404	0.57
327.772	0.58
328.14	0.57
328.508	0.57
328.875	0.59
329.243	0.63
329.611	0.63
329.979	0.63
330.346	0.62
330.714	0.61
331.082	0.61
331.449	0.59
331.817	0.64
332.185	0.63
332.552	0.63
332.92	0.63
333.287	0.65
333.655	0.64
334.022	0.66
334.389	0.67
334.757	0.66
335.124	0.67
335.491	0.67
335.859	0.66
336.226	0.67
336.593	0.69
336.96	0.69
337.327	0.68
337.695	0.68
338.062	0.69
338.429	0.7
338.796	0.69
339.163	0.69
339.53	0.7
339.897	0.71
340.263	0.71
340.63	0.71
340.997	0.71
341.364	0.71
341.731	0.71
342.097	0.7
342.464	0.73
342.831	0.73
343.197	0.73
343.564	0.73
343.931	0.72
344.297	0.73
344.664	0.75
345.03	0.74
345.396	0.73
345.763	0.73
346.129	0.73
346.496	0.74
346.862	0.75
347.228	0.73
347.594	0.71
347.961	0.72
348.327	0.74
348.693	0.74
349.059	0.74
349.425	0.76
349.791	0.74
350.157	0.74
350.523	0.74
350.889	0.76
351.255	0.76
351.621	0.76
351.987	0.74
352.353	0.75
352.719	0.75
353.084	0.73
353.45	0.73
353.816	0.72
354.181	0.74
354.547	0.74
354.913	0.74
355.278	0.73
355.644	0.73
356.009	0.74
356.375	0.7
356.74	0.71
357.106	0.73
357.471	0.7
357.836	0.7
358.202	0.72
358.567	0.71
358.932	0.71
359.297	0.7
359.663	0.71
360.028	0.69
360.393	0.69
360.758	0.68
361.123	0.69
361.488	0.69
361.853	0.68
362.218	0.69
362.583	0.66
362.948	0.68
363.312	0.67
363.677	0.65
364.042	0.66
364.407	0.65
364.772	0.63
365.136	0.63
365.501	0.63
365.865	0.63
366.23	0.63
366.595	0.63
366.959	0.64
367.324	0.62
367.688	0.61
368.052	0.59
368.417	0.61
368.781	0.59
369.145	0.59
369.51	0.57
369.874	0.57
370.238	0.58
370.602	0.56
370.967	0.55
371.331	0.56
371.695	0.55
372.059	0.55
372.423	0.54
372.787	0.55
373.151	0.53
373.515	0.54
373.878	0.52
374.242	0.53
374.606	0.52
374.97	0.52
375.334	0.5
375.697	0.51
376.061	0.5
376.425	0.49
376.788	0.49
377.152	0.45
377.515	0.48
377.879	0.46
378.242	0.46
378.606	0.46
378.969	0.45
379.333	0.45
379.696	0.44
380.059	0.43
380.422	0.43
380.786	0.41
381.149	0.41
381.512	0.4
381.875	0.39
382.238	0.38
382.601	0.38
382.964	0.37
383.327	0.37
383.69	0.37
384.053	0.35
384.416	0.34
384.779	0.35
385.142	0.34
385.504	0.32
385.867	0.33
386.23	0.32
386.593	0.32
386.955	0.32
387.318	0.3
387.68	0.31
388.043	0.29
388.405	0.29
388.768	0.3
389.13	0.28
389.493	0.29
389.855	0.28
390.217	0.28
390.58	0.27
390.942	0.27
391.304	0.26
391.666	0.25
392.028	0.26
392.391	0.25
392.753	0.24
393.115	0.24
393.477	0.23
393.839	0.24
394.201	0.23
394.563	0.25
394.924	0.24
395.286	0.23
395.648	0.23
396.01	0.22
396.371	0.23
396.733	0.22
397.095	0.22
397.456	0.22
397.818	0.21
398.18	0.21
398.541	0.2
398.903	0.2
399.264	0.2
399.625	0.2
399.987	0.2
400.348	0.2
400.709	0.21
401.071	0.2
401.432	0.2
401.793	0.2
402.154	0.19
402.515	0.19
402.876	0.18
403.238	0.19
403.599	0.19
403.96	0.18
404.32	0.18
404.681	0.19
405.042	0.19
405.403	0.18
405.764	0.18
406.125	0.2
406.485	0.19
406.846	0.19
407.207	0.18
407.567	0.19
407.928	0.2
408.288	0.18
408.649	0.18
409.009	0.18
409.37	0.18
409.73	0.17
410.091	0.17
410.451	0.17
410.811	0.17
411.171	0.17
411.532	0.17
411.892	0.17
412.252	0.16
412.612	0.17
412.972	0.17
413.332	0.16
413.692	0.17
414.052	0.17
414.412	0.17
414.772	0.18
415.132	0.17
415.492	0.17
415.851	0.16
416.211	0.16
416.571	0.17
416.931	0.17
417.29	0.18
417.65	0.17
418.009	0.18
418.369	0.17
418.728	0.17
419.088	0.17
419.447	0.16
419.807	0.17
420.166	0.17
420.525	0.18
420.884	0.16
421.244	0.17
421.603	0.17
421.962	0.16
422.321	0.16
422.68	0.16
423.039	0.18
423.398	0.15
423.757	0.16
424.116	0.16
424.475	0.17
424.834	0.17
425.193	0.17
425.551	0.15
425.91	0.16
426.269	0.17
426.628	0.16
426.986	0.15
427.345	0.16
427.703	0.16
428.062	0.17
428.42	0.16
428.779	0.16
429.137	0.17
429.496	0.16
429.854	0.16
430.212	0.16
430.57	0.16
430.929	0.16
431.287	0.15
431.645	0.15
432.003	0.16
432.361	0.15
432.719	0.16
433.077	0.15
433.435	0.15
433.793	0.15
434.151	0.15
434.509	0.14
434.866	0.15
435.224	0.15
435.582	0.16
435.94	0.16
436.297	0.14
436.655	0.14
437.012	0.14
437.37	0.14
437.727	0.15
438.085	0.16
438.442	0.15
438.8	0.15
439.157	0.14
439.514	0.14
439.872	0.14
440.229	0.15
440.586	0.14
440.943	0.13
441.3	0.12
441.657	0.14
442.014	0.13
442.371	0.14
442.728	0.14
443.085	0.14
443.442	0.13
443.799	0.13
444.156	0.13
444.513	0.12
444.869	0.13
445.226	0.13
445.583	0.13
445.939	0.13
446.296	0.13
446.652	0.13
447.009	0.12
447.365	0.11
447.722	0.12
448.078	0.11
448.434	0.12
448.791	0.13
449.147	0.1
449.503	0.11
449.859	0.1
450.215	0.11
450.571	0.11
450.928	0.11
451.284	0.11
451.64	0.12
451.995	0.11
452.351	0.11
452.707	0.11
453.063	0.11
453.419	0.1
453.775	0.09
454.13	0.11
454.486	0.1
454.842	0.1
455.197	0.09
455.553	0.09
455.908	0.09
456.264	0.09
456.619	0.09
456.975	0.09
457.33	0.08
457.685	0.09
458.04	0.09
458.396	0.08
458.751	0.09
459.106	0.09
459.461	0.09
459.816	0.07
460.171	0.08
460.526	0.07
460.881	0.07
461.236	0.08
461.591	0.08
461.946	0.08
462.301	0.07
462.655	0.07
463.01	0.07
463.365	0.06
463.719	0.06
464.074	0.06
464.428	0.06
464.783	0.05
465.137	0.05
465.492	0.05
465.846	0.05
466.201	0.05
466.555	0.05
466.909	0.05
467.263	0.05
467.618	0.05
467.972	0.04
468.326	0.04
468.68	0.04
469.034	0.05
469.388	0.04
469.742	0.03
470.096	0.04
470.45	0.04
470.804	0.03
471.157	0.04
471.511	0.03
471.865	0.04
472.218	0.02
472.572	0.03
472.926	0.02
473.279	0.03
473.633	0.03
473.986	0.03
474.34	0.03
474.693	0.03
475.046	0.02
475.4	0.02
475.753	0.02
476.106	0.01
476.459	0.02
476.812	0.02
477.165	0.01
477.519	0.02
477.872	0.01
478.224	0
478.577	0.03
478.93	0.01
479.283	0.03
479.636	-0
479.989	0.01
480.341	0
480.694	0.02
481.047	0.02
481.399	0
481.752	0.01
482.104	0
482.457	0.01
482.809	0
483.162	0.01
483.514	0.01
483.866	-0
484.219	0
484.571	0
484.923	0
485.275	0.01
485.627	0
485.979	-0
486.331	0.01
486.683	0.01
487.035	0
487.387	0.01
487.739	0
488.091	0.02
488.443	-0
488.794	0
489.146	-0.01
489.498	-0
489.849	0
490.201	-0
490.552	0
490.904	-0.01
491.255	-0
491.607	-0
491.958	0
492.309	-0.01
492.661	-0
493.012	-0.01
493.363	0.01
493.714	-0
494.065	-0
494.416	-0
494.767	-0
495.118	-0.02
495.469	-0.01
495.82	0.01
496.171	0.01
496.522	-0.01
496.872	-0
497.223	-0.01
497.574	-0.02
497.924	-0.01
498.275	0.01
498.626	-0.01
498.976	-0.01
499.327	-0
499.677	-0
500.027	0
500.378	-0.02
500.728	-0.03
501.078	-0.01
501.428	-0.02
501.779	-0.01
502.129	-0.01
502.479	-0.01
502.829	-0.01
503.179	-0.01
503.529	-0
503.879	-0.01
504.229	0
504.578	-0.02
504.928	-0.02
505.278	-0.02
505.628	-0.02
505.977	-0.02
506.327	-0.02
506.676	-0.02
507.026	-0.02
507.375	-0.04
507.725	-0.02
508.074	-0.01
508.424	-0.02
508.773	-0.03
509.122	-0.03
509.471	-0.02
509.82	-0.01
510.17	-0.01
510.519	-0.01
510.868	-0.02
511.217	-0.01
511.566	-0.02
511.915	-0.01
512.263	-0.01
512.612	-0
512.961	-0.01
513.31	-0.01
513.659	-0.02
514.007	-0.03
514.356	-0.03
514.704	-0.03
515.053	-0.02
515.401	-0.04
515.75	-0.02
516.098	-0.02
516.447	-0.02
516.795	-0.03
517.143	-0.04
517.491	-0.02
517.839	-0.02
518.188	-0.02
518.536	-0.04
518.884	-0.02
519.232	-0.03
519.58	-0.03
519.928	-0.02
520.275	-0.01
520.623	-0.02
520.971	-0.03
521.319	-0.02
521.666	-0.02
522.014	-0.03
522.362	-0.03
522.709	-0.03
523.057	-0.03
523.404	-0.02
523.752	-0.03
524.099	-0.02
524.446	-0.02
524.794	-0.04
525.141	-0.01
525.488	-0.03
525.835	-0.02
526.182	-0.03
526.529	-0.02
526.876	-0.03
527.223	-0.03
527.57	-0.03
527.917	-0.03
528.264	-0.03
528.611	-0.04
528.958	-0.04
529.304	-0.03
529.651	-0.03
529.998	-0.03
530.344	-0.03
530.691	-0.04
531.037	-0.04
531.384	-0.03
531.73	-0.02
532.076	-0.03
532.423	-0.03
532.769	-0.02
533.115	-0.03
533.461	-0.04
533.807	-0.02
534.154	-0.02
534.5	-0.02
534.846	-0.02
535.192	-0.02
535.537	-0.03
535.883	-0.03
536.229	-0.02
536.575	-0.03
536.921	-0.02
537.266	-0.03
537.612	-0.03
537.957	-0.01
538.303	-0.04
538.649	-0.02
538.994	-0.03
539.339	-0.03
539.685	-0.02
540.03	-0.03
540.375	-0.03
540.721	-0.05
541.066	-0.03
541.411	-0.02
541.756	-0.02
542.101	-0.02
542.446	-0.02
542.791	-0.02
543.136	-0.02
543.481	-0.04
543.825	-0.03
544.17	-0.04
544.515	-0.03
544.86	-0.03
545.204	-0.04
545.549	-0.04
545.893	-0.04
546.238	-0.03
546.582	-0.03
546.927	-0.05
547.271	-0.03
547.615	-0.04
547.96	-0.03
548.304	-0.03
548.648	-0.03
548.992	-0.03
549.336	-0.04
549.68	-0.02
550.024	-0.04
550.368	-0.03
550.712	-0.03
551.056	-0.03
551.4	-0.03
551.743	-0.03
552.087	-0.02
552.431	-0.02
552.774	-0.02
553.118	-0.03
553.462	-0.03
553.805	-0.03
554.148	-0.03
554.492	-0.02
554.835	-0.03
555.178	-0.02
555.522	-0.05
555.865	-0.03
556.208	-0.03
556.551	-0.04
556.894	-0.04
557.237	-0.02
557.58	-0.02
557.923	-0.04
558.266	-0.03
558.609	-0.03
558.952	-0.04
559.294	-0.03
559.637	-0.05
559.98	-0.03
560.322	-0.02
560.665	-0.04
561.007	-0.02
561.35	-0.04
561.692	-0.02
562.034	-0.03
562.377	-0.03
562.719	-0.03
563.061	-0.02
563.403	-0.03
563.745	-0.03
564.088	-0.03
564.43	-0.03
564.772	-0.03
565.113	-0.02
565.455	-0.04
565.797	-0.02
566.139	-0.04
566.481	-0.02
566.822	-0.03
567.164	-0.03
567.506	-0.03
567.847	-0.03
568.189	-0.03
568.53	-0.03
568.872	-0.03
569.213	-0.03
569.554	-0.03
569.895	-0.03
570.237	-0.04
570.578	-0.03
570.919	-0.04
571.26	-0.03
571.601	-0.03
571.942	-0.02
572.283	-0.03
572.624	-0.02
572.965	-0.02
573.306	-0.03
573.646	-0.02
573.987	-0.03
574.328	-0.04
574.668	-0.04
575.009	-0.03
575.349	-0.04
575.69	-0.02
576.03	-0.02
576.37	-0.04
576.711	-0.03
577.051	-0.03
577.391	-0.03
577.731	-0.04
578.072	-0.03
578.412	-0.03
578.752	-0.03
579.092	-0.03
579.431	-0.02
579.771	-0.03
580.111	-0.02
580.451	-0.02
580.791	-0.04
581.13	-0.02
581.47	-0.03
581.81	-0.03
582.149	-0.04
582.489	-0.04
582.828	-0.02
583.167	-0.02
583.507	-0.02
583.846	-0.03
584.185	-0.03
584.525	-0.02
584.864	-0.03
585.203	-0.03
585.542	-0.02
585.881	-0.03
586.22	-0.02
586.559	-0.03
586.898	-0.02
587.236	-0.03
587.575	-0.03
587.914	-0.03
588.252	-0.02
588.591	-0.03
588.93	-0.03
589.268	-0.02
589.607	-0.02
589.945	-0.02
590.283	-0.03
590.622	-0.02
590.96	-0.03
591.298	-0.03
591.636	-0.03
591.974	-0.04
592.313	-0.03
592.651	-0.03
592.989	-0.05
593.326	-0.03
593.664	-0.04
594.002	-0.05
594.34	-0.04
594.678	-0.04
595.015	-0.04
595.353	-0.03
595.691	-0.03
596.028	-0.03
596.366	-0.03
596.703	-0.03
597.04	-0.04
597.378	-0.03
597.715	-0.04
598.052	-0.04
598.389	-0.05
598.726	-0.04
599.064	-0.05
599.401	-0.04
599.738	-0.04
600.074	-0.04
600.411	-0.03
600.748	-0.04
601.085	-0.03
601.422	-0.03
601.758	-0.02
602.095	-0.02
602.432	-0.02
602.768	-0.03
603.105	-0.02
603.441	-0.04
603.777	-0.02
604.114	-0.02
604.45	-0.03
604.786	-0.02
605.122	-0.02
605.459	-0.03
605.795	-0.03
606.131	-0.02
606.467	-0.04
606.803	-0.03
607.139	-0.03
607.474	-0.03
607.81	-0.02
608.146	-0.03
608.482	-0.03
608.817	-0.03
609.153	-0.03
609.488	-0.04
609.824	-0.03
610.159	-0.04
610.495	-0.04
610.83	-0.03
611.165	-0.03
611.5	-0.04
611.836	-0.04
612.171	-0.04
612.506	-0.04
612.841	-0.04
613.176	-0.03
613.511	-0.03
613.845	-0.04
614.18	-0.03
614.515	-0.04
614.85	-0.04
615.184	-0.03
615.519	-0.02
615.854	-0.04
616.188	-0.04
616.523	-0.04
616.857	-0.04
617.191	-0.04
617.526	-0.03
617.86	-0.04
618.194	-0.04
618.528	-0.04
618.862	-0.05
619.196	-0.04
619.53	-0.03
619.864	-0.05
620.198	-0.03
620.532	-0.03
620.866	-0.04
621.2	-0.04
621.533	-0.04
621.867	-0.04
622.201	-0.03
622.534	-0.03
622.868	-0.03
623.201	-0.03
623.534	-0.03
623.868	-0.04
624.201	-0.03
624.534	-0.03
624.868	-0.03
625.201	-0.02
625.534	-0.03
625.867	-0.03
626.2	-0.03
626.533	-0.03
626.865	-0.04
627.198	-0.04
627.531	-0.05
627.864	-0.04
628.196	-0.04
628.529	-0.04
628.862	-0.04
629.194	-0.04
629.527	-0.03
629.859	-0.04
630.191	-0.04
630.524	-0.04
630.856	-0.04
631.188	-0.04
631.52	-0.04
631.852	-0.05
632.184	-0.04
632.516	-0.04
632.848	-0.05
633.18	-0.05
633.512	-0.05
633.844	-0.05
634.175	-0.05
634.507	-0.04
634.839	-0.05
635.17	-0.04
635.502	-0.04
635.833	-0.04
636.165	-0.04
636.496	-0.04
636.827	-0.05
637.159	-0.05
637.49	-0.04
637.821	-0.04
638.152	-0.03
638.483	-0.02
638.814	-0.05
639.145	-0.04
639.476	-0.05
639.807	-0.03
640.137	-0.05
640.468	-0.05
640.799	-0.04
641.129	-0.05
641.46	-0.06
641.791	-0.05
642.121	-0.06
642.451	-0.06
642.782	-0.06
643.112	-0.05
643.442	-0.05
643.773	-0.05
644.103	-0.06
644.433	-0.03
644.763	-0.04
645.093	-0.04
645.423	-0.04
645.753	-0.03
646.082	-0.05
646.412	-0.05
646.742	-0.05
647.072	-0.04
647.401	-0.03
647.731	-0.04
648.06	-0.03
648.39	-0.04
648.719	-0.03
649.048	-0.04
649.378	-0.04
649.707	-0.03
650.036	-0.04
650.365	-0.05
650.694	-0.04
651.023	-0.04
651.352	-0.04
651.681	-0.04
652.01	-0.03
652.339	-0.03
652.668	-0.04
652.996	-0.03
653.325	-0.05
653.654	-0.04
653.982	-0.04
654.311	-0.05
654.639	-0.04
654.967	-0.03
655.296	-0.05
655.624	-0.05
655.952	-0.06
656.28	-0.06
656.609	-0.04
656.937	-0.04
657.265	-0.03
657.593	-0.02
657.92	-0
658.248	-0.01
658.576	-0.02
658.904	-0.02
659.231	-0.04
659.559	-0.04
659.887	-0.03
660.214	-0.04
660.542	-0.03
660.869	-0.03
661.196	-0.04
661.524	-0.04
661.851	-0.03
662.178	-0.03
662.505	-0.04
662.832	-0.04
663.159	-0.04
663.486	-0.05
663.813	-0.04
664.14	-0.04
664.467	-0.03
664.794	-0.04
665.12	-0.03
665.447	-0.04
665.774	-0.03
666.1	-0.04
666.427	-0.05
666.753	-0.04
667.079	-0.06
667.406	-0.04
667.732	-0.04
668.058	-0.02
668.384	-0.04
668.71	-0.04
669.036	-0.03
669.362	-0.04
669.688	-0.04
670.014	-0.05
670.34	-0.04
670.666	-0.05
670.991	-0.05
671.317	-0.05
671.643	-0.05
671.968	-0.05
672.294	-0.05
672.619	-0.06
672.945	-0.06
673.27	-0.05
673.595	-0.04
673.92	-0.05
674.246	-0.06
674.571	-0.06
674.896	-0.05
675.221	-0.06
675.546	-0.05
675.87	-0.05
676.195	-0.05
676.52	-0.06
676.845	-0.05
677.169	-0.04
677.494	-0.03
677.819	-0.04
678.143	-0.03
678.468	-0.04
678.792	-0.05
679.116	-0.04
679.44	-0.03
679.765	-0.04
680.089	-0.05
680.413	-0.04
680.737	-0.04
681.061	-0.04
681.385	-0.04
681.709	-0.04
682.033	-0.05
682.356	-0.04
682.68	-0.05
683.004	-0.04
683.327	-0.04
683.651	-0.05
683.974	-0.05
684.298	-0.07
684.621	-0.05
684.944	-0.06
685.268	-0.06
685.591	-0.05
685.914	-0.06
686.237	-0.05
686.56	-0.04
686.883	-0.05
687.206	-0.05
687.529	-0.05
687.852	-0.05
688.175	-0.05
688.497	-0.04
688.82	-0.06
689.142	-0.05
689.465	-0.06
689.787	-0.06
690.11	-0.07
690.432	-0.07
690.755	-0.07
691.077	-0.06
691.399	-0.07
691.721	-0.07
692.043	-0.06
692.365	-0.05
692.687	-0.05
693.009	-0.06
693.331	-0.05
693.653	-0.05
693.974	-0.05
694.296	-0.06
694.618	-0.06
694.939	-0.06
695.261	-0.05
695.582	-0.05
695.904	-0.06
696.225	-0.07
696.546	-0.05
696.868	-0.05
697.189	-0.05
697.51	-0.05
697.831	-0.05
698.152	-0.04
698.473	-0.05
698.794	-0.03
699.114	-0.05
699.435	-0.06
699.756	-0.05
700.077	-0.05
700.397	-0.05
700.718	-0.06
701.038	-0.04
701.359	-0.04
701.679	-0.04
701.999	-0.04
702.32	-0.06
702.64	-0.06
702.96	-0.06
703.28	-0.05
703.6	-0.04
703.92	-0.05
704.24	-0.06
704.56	-0.06
704.879	-0.07
705.199	-0.06
705.519	-0.06
705.838	-0.06
706.158	-0.06
706.478	-0.06
706.797	-0.05
707.116	-0.05
707.436	-0.05
707.755	-0.05
708.074	-0.05
708.393	-0.05
708.712	-0.04
709.031	-0.04
709.35	-0.05
709.669	-0.05
709.988	-0.04
710.307	-0.05
710.626	-0.04
710.944	-0.04
711.263	-0.05
711.582	-0.06
711.9	-0.06
712.219	-0.05
712.537	-0.05
712.855	-0.06
713.174	-0.05
713.492	-0.04
713.81	-0.06
714.128	-0.05
714.446	-0.06
714.764	-0.05
715.082	-0.04
715.4	-0.05
715.718	-0.05
716.035	-0.04
716.353	-0.03
716.671	-0.04
716.988	-0.05
717.306	-0.05
717.623	-0.04
717.941	-0.05
718.258	-0.05
718.575	-0.05
718.893	-0.05
719.21	-0.04
719.527	-0.05
719.844	-0.06
720.161	-0.06
720.478	-0.07
720.795	-0.07
721.112	-0.07
721.428	-0.06
721.745	-0.05
722.062	-0.05
722.378	-0.07
722.695	-0.05
723.011	-0.06
723.328	-0.05
723.644	-0.06
723.96	-0.05
724.276	-0.06
724.593	-0.05
724.909	-0.05
725.225	-0.06
725.541	-0.07
725.857	-0.06
726.173	-0.06
726.488	-0.06
726.804	-0.06
727.12	-0.06
727.435	-0.05
727.751	-0.06
728.067	-0.07
728.382	-0.06
728.697	-0.06
729.013	-0.05
729.328	-0.05
729.643	-0.05
729.958	-0.05
730.273	-0.05
730.588	-0.05
730.903	-0.06
731.218	-0.05
731.533	-0.03
731.848	-0.04
732.163	-0.05
732.477	-0.05
732.792	-0.03
733.107	-0.03
733.421	-0.04
733.736	-0.04
734.05	-0.05
734.364	-0.03
734.678	-0.04
734.993	-0.05
735.307	-0.04
735.621	-0.04
735.935	-0.04
736.249	-0.03
736.563	-0.04
736.877	-0.03
737.19	-0.05
737.504	-0.04
737.818	-0.04
738.131	-0.03
738.445	-0.04
738.758	-0.03
739.072	-0.05
739.385	-0.02
739.698	-0.03
740.012	-0.04
740.325	-0.03
740.638	-0.03
740.951	-0.05
741.264	-0.05
741.577	-0.04
741.89	-0.06
742.203	-0.05
742.515	-0.05
742.828	-0.05
743.141	-0.04
743.453	-0.04
743.766	-0.03
744.078	-0.04
744.391	-0.05
744.703	-0.04
745.015	-0.04
745.327	-0.03
745.639	-0.04
745.952	-0.04
746.264	-0.03
746.575	-0.04
746.887	-0.04
747.199	-0.05
747.511	-0.04
747.823	-0.05
748.134	-0.04
748.446	-0.06
748.757	-0.06
749.069	-0.05
749.38	-0.06
749.692	-0.06
750.003	-0.05
750.314	-0.06
750.625	-0.05
750.936	-0.05
751.248	-0.04
751.559	-0.05
751.869	-0.06
752.18	-0.04
752.491	-0.06
752.802	-0.06
753.112	-0.05
753.423	-0.05
753.734	-0.04
754.044	-0.06
754.355	-0.04
754.665	-0.06
754.975	-0.05
755.285	-0.04
755.596	-0.03
755.906	-0.03
756.216	-0.04
756.526	-0.03
756.836	-0.01
757.146	-0.02
757.455	-0.01
757.765	-0.01
758.075	-0.01
758.385	-0.01
758.694	-0
759.004	0.01
759.313	-0
759.622	-0.01
759.932	-0.01
760.241	0
760.55	-0.01
760.859	-0.02
761.168	-0.02
761.477	-0.03
761.786	-0.04
762.095	-0.04
762.404	-0.04
762.713	-0.03
763.021	-0.03
763.33	-0.04
763.639	-0.03
763.947	-0.03
764.256	-0.03
764.564	-0.03
764.872	-0.02
765.181	-0.02
765.489	-0.01
765.797	-0.01
766.105	-0.01
766.413	-0.02
766.721	-0.02
767.029	-0.02
767.337	-0.02
767.644	-0.04
767.952	-0.03
768.26	-0.01
768.567	-0.02
768.875	-0.02
769.182	-0.03
769.49	-0.04
769.797	-0.04
770.104	-0.05
770.411	-0.02
770.718	-0.02
771.026	-0.03
771.333	-0.01
771.639	-0.02
771.946	-0.02
772.253	-0.04
772.56	-0.03
772.867	-0.04
773.173	-0.03
773.48	-0.03
773.786	-0.04
774.093	-0.05
774.399	-0.03
774.705	-0.04
775.012	-0.05
775.318	-0.02
775.624	-0.04
775.93	-0.02
776.236	-0.02
776.542	-0.03
776.848	-0.04
777.154	-0.01
777.459	-0.04
777.765	-0.02
778.071	-0.03
778.376	-0.03
778.682	-0.04
778.987	-0.03
779.292	-0.03
779.598	-0.05
779.903	-0.03
780.208	-0.04
780.513	-0.03
780.818	-0.03
781.123	-0.03
781.428	-0.02
781.733	-0.02
782.038	-0.02
782.343	-0.01
782.647	-0.01
782.952	0.02
783.256	0
783.561	-0.01
783.865	-0.02
784.17	-0.01
784.474	-0
784.778	-0.01
785.082	0.01
785.386	-0.02
785.69	-0
785.994	-0
786.298	0.01
786.602	0.01
786.906	-0
787.209	0
787.513	0.01
787.817	-0.02
788.12	0.02
788.424	-0.01
788.727	-0
789.03	0.02
789.333	0.01
789.637	0.01
789.94	0.01
790.243	-0.01
790.546	0.01
790.849	0
791.152	0.03
791.454	0.03
791.757	0.01
792.06	-0.02
792.362	0.02
792.665	-0.03
792.967	-0.01
793.27	0
793.572	0
793.874	-0
794.177	0.01
794.479	0.03
794.781	0.02
795.083	0.05
795.385	0.01
795.687	0.05
795.989	0.02
796.29	0
796.592	0.01
796.894	0.02
797.195	0.03
797.497	0.02
797.798	0.02
798.1	0.01
798.401	0.02
798.702	0.02
799.003	-0.02
799.304	0.04
799.605	0.01
799.906	0.04
800.207	0.03
800.508	0.04
800.809	0.06
801.11	0.03
801.41	0.03
801.711	0.03
802.011	0.04
802.312	0.04
802.612	0.02
802.913	0.04
803.213	0.05
803.513	0.09
803.813	0.04
804.113	0.02
804.413	0.07
804.713	0.02
805.013	0.03
805.313	0.03
805.613	0.06
805.912	0.07
806.212	0.06
806.511	0.02
806.811	0.05
807.11	0.08
807.41	0.04
807.709	0.04
808.008	0.03
808.307	0.03
808.606	0.09
808.905	0.02
809.204	0.07
809.503	0.03
809.802	0.09
810.101	0.04
810.399	0.04
810.698	0.03
810.997	0.05
811.295	0.03
811.593	0.07
811.892	0.03
812.19	0.08
812.488	0.1
812.786	0.08
813.084	0.04
813.383	0.01
813.68	0.07
813.978	0.07
814.276	0.09
814.574	0.12
814.872	0.11
815.169	0.06
815.467	0.05
815.764	0.06
816.062	0.01
816.359	0.02
816.656	0.09
816.954	0.09
817.251	0.04
817.548	0.02
817.845	0.07
818.142	0.05
818.439	0.06
818.735	0.04
819.032	-0
819.329	0.05
819.626	0.04
819.922	0.05
820.219	0.04
820.515	0.08
820.811	0.1
821.108	0.05
821.404	0.07
821.7	0.04
821.996	-0
822.292	0.13
822.588	-0
822.884	0.09
823.18	0.04
823.475	0.02
823.771	0.01
824.067	0.02
824.362	-0.01
824.658	0.07
824.953	-0.03
825.249	0.06
825.544	0.04
825.839	0.09
826.134	0.06
826.429	0.12
826.724	0.05
827.019	0.05
827.314	-0.02
827.609	0.07
827.904	-0.04
828.198	0.06
828.493	0.08
828.787	0.04
829.082	0.15
829.376	0.1
829.671	0.05
829.965	0.06
830.259	0.03
830.553	-0.01
830.847	0.09
831.141	0.02
831.435	0.02
831.729	0.03
832.023	-0
832.317	0.1
832.61	0.07
832.904	-0.01
833.197	0.07
833.491	0.06
833.784	-0.07
834.077	0.02
834.371	0.14
834.664	0.12
834.957	0.04
835.25	0.03
835.543	0.09
835.836	-0.16
836.129	0.05
836.421	0.02
836.714	-0.06
837.007	0.23
837.299	0.04
837.592	0.07
837.884	0.11
838.177	0.01
838.469	-0.02
838.761	0.01
839.053	0.06
839.345	0.15
839.637	0.02
839.929	-0.06
840.221	0.12
840.513	0.03
840.805	0.05
841.096	-0.02
841.388	0.03
841.68	-0.03
841.971	-0.05
842.262	-0.1
842.554	0.11
842.845	0.01
843.136	0.01
843.427	-0.11
843.718	-0.04
844.009	0.12
844.3	-0.22
844.591	-0.23
844.882	-0.22
845.173	0.12
845.463	0.06
845.754	-0.13
846.044	0.17
846.335	0.33
846.625	0.15
846.915	-0.17
847.206	0.03
847.496	-0.18
847.786	-0.16
848.076	-0.39
848.366	-0.12
848.656	-0.12
848.945	0.1
849.235	0.13
849.525	-0
849.814	0.35
850.104	0.09
850.393	-0.25
850.683	-0.34
850.972	-0.09
851.261	0.29
851.551	-0.14
851.84	0.11
852.129	-0.3
852.418	-0.19
852.707	-0.23
852.995	0.02
853.284	0.23
853.573	-0.27
853.862	-0.16
854.15	-0.07
854.439	-0.14
854.727	-0.59
855.015	0.55
855.304	-0.1
855.592	-0.03
855.88	-0
856.168	-0.15
856.456	-0.21
856.744	0.18
857.032	0.24
857.32	-0.12
857.607	-0.1
857.895	0.15
858.183	-0.46
858.47	-0.1
858.757	-0
859.045	-0
859.332	-0
859.619	0.05
859.907	0.23
860.194	-0.35
860.481	-0
860.768	0.95
861.054	-0
861.341	0.6
861.628	-0
861.915	-0.15
862.201	0.44
862.488	-0.35
862.774	-0
863.061	0.21
863.347	-0.08
863.633	0.33
863.919	-0.38
864.205	1.15
864.491	-0
864.777	-0.8
865.063	-0.27
865.349	-0
865.635	-0.28
865.92	-0.39
866.206	-0.08
866.492	-0
866.777	-0
867.062	-0.92
867.348	-0.2
867.633	-0.35
867.918	-0
868.203	-0
868.488	-0
868.773	-0
869.058	0.11
869.343	-0.21
869.628	-0
869.912	-0
870.197	-0
870.482	-0
870.766	-0
871.05	-0
871.335	-0
871.619	-0
871.903	-0.18
872.187	-0.21
872.471	0.39
872.755	-0
873.039	-0.13
873.323	0.21
873.607	-0
873.89	-0.37
874.174	0.22
874.458	-0.02
874.741	0.66
875.024	0.68
875.308	1.36
875.591	0.2
875.874	-0
876.157	0.3
876.44	-0
876.723	0.23
877.006	1.11
877.289	-0.41
877.572	-0
877.854	0.03
878.137	-0.19
878.42	0.28
878.702	-0
878.984	-0.43
879.267	-0
879.549	-0
879.831	-0.22
880.113	-0.26
880.395	-0.33
880.677	-0.18
880.959	0.4
