Data from c2t_JH05_50uM_Absorbance_11-14-39-015.txt Node
Date: Thu Dec 21 11:14:39 GMT 2017
User: egn-admin
Spectrometer: OFX00224
Trigger mode: 0
Integration Time (sec): 5.000000E-2
Scans to average: 1
Nonlinearity correction enabled: false
Boxcar width: 0
Storing dark spectrum: false
XAxis mode: Wavelengths
Number of Pixels in Spectrum: 2136
>>>>>Begin Spectral Data<<<<<
154.91	-0
155.289	0.13
155.669	1.02
156.048	0.7
156.428	-0.6
156.807	0.78
157.186	-0
157.566	-0
157.945	0.25
158.325	-0
158.704	-0
159.083	-0
159.462	0.02
159.842	-0
160.221	-0
160.6	0.18
160.979	-0.54
161.359	-0
161.738	-0.34
162.117	-0.06
162.496	-0
162.875	-0.43
163.254	-0.12
163.633	-0
164.012	-0.18
164.391	-0.95
164.77	-0.07
165.149	0.12
165.528	-0
165.907	-0
166.286	-0.06
166.665	0.35
167.044	0.28
167.423	-0.19
167.802	-0
168.181	0.43
168.559	-0
168.938	-0
169.317	0.08
169.696	0.65
170.074	-0.04
170.453	0.43
170.832	-0.2
171.21	-0
171.589	-0
171.968	-0.55
172.346	-0.03
172.725	-0
173.103	-0.05
173.482	-0.28
173.861	-0
174.239	0.07
174.617	-0.72
174.996	-0
175.374	-0
175.753	-0.74
176.131	-0
176.51	0.08
176.888	0.1
177.266	-0.07
177.645	1
178.023	-0.16
178.401	-0
178.779	-0
179.158	0.07
179.536	-0.45
179.914	-0.58
180.292	-0
180.67	0.14
181.048	-0.18
181.427	0.3
181.805	-0.03
182.183	0.18
182.561	-0
182.939	-0
183.317	-0.5
183.695	-0.37
184.073	-0
184.451	-0
184.829	0.3
185.206	0.54
185.584	-0.6
185.962	0.18
186.34	-0
186.718	-0.12
187.096	0.07
187.473	0.38
187.851	-0
188.229	-0.48
188.607	-0.27
188.984	0.24
189.362	-0.02
189.74	0.03
190.117	-0
190.495	0.12
190.872	0.22
191.25	0.33
191.627	-0.19
192.005	0.21
192.382	-0
192.76	0.11
193.137	0.18
193.515	1.38
193.892	-0
194.269	0.08
194.647	0.66
195.024	-0.21
195.401	0.11
195.779	-0.09
196.156	0.06
196.533	-0.2
196.91	-0.1
197.288	-0.82
197.665	-1.71
198.042	-0.06
198.419	-0.17
198.796	-0.13
199.173	0.1
199.55	-0.24
199.927	0.81
200.304	-0.17
200.681	-0.31
201.058	0.28
201.435	0.11
201.812	-0.21
202.189	0.06
202.566	0.19
202.943	0.05
203.32	0.65
203.697	0.06
204.073	-0.04
204.45	-0.21
204.827	-0.13
205.204	0.05
205.58	-0.06
205.957	-0.16
206.334	0.43
206.71	-0
207.087	0.09
207.464	0.27
207.84	0.22
208.217	0.11
208.593	-0.06
208.97	-0.04
209.346	-0.08
209.723	0.05
210.099	0.15
210.476	-0.06
210.852	0.05
211.228	-0.05
211.605	0.03
211.981	0.07
212.357	0.37
212.733	-0.04
213.11	0.23
213.486	-0.01
213.862	-0.05
214.238	-0.07
214.614	-0.12
214.991	0.26
215.367	0.06
215.743	-0
216.119	0.08
216.495	-0.05
216.871	0.12
217.247	0.25
217.623	0.19
217.999	-0.11
218.375	0.12
218.751	0.05
219.127	0.69
219.502	0.03
219.878	0.25
220.254	0.1
220.63	0.07
221.006	0.07
221.381	0.09
221.757	0.11
222.133	0.03
222.508	0.26
222.884	0.18
223.26	0.54
223.635	0.01
224.011	0.12
224.386	0.3
224.762	-0.08
225.137	0.98
225.513	0.06
225.888	-0.3
226.264	0.5
226.639	0.36
227.014	-0.04
227.39	0.61
227.765	0.35
228.14	0.22
228.516	-0.02
228.891	0.01
229.266	-0.07
229.641	-0
230.017	0.09
230.392	0.28
230.767	-0.16
231.142	-0.33
231.517	0.31
231.892	0.25
232.267	0.44
232.642	0.92
233.017	0.3
233.392	0.64
233.767	0.09
234.142	0.16
234.517	0.42
234.892	0.61
235.267	0.27
235.641	-0.12
236.016	0.53
236.391	0.28
236.766	0.01
237.14	0.46
237.515	0.08
237.89	0.02
238.264	0.76
238.639	0.04
239.014	0.07
239.388	0.05
239.763	0.24
240.137	0.1
240.512	1.1
240.886	0.06
241.261	-0
241.635	0.42
242.009	0.22
242.384	-0.03
242.758	-0.12
243.132	0.01
243.507	0.12
243.881	0.26
244.255	0.09
244.629	-0.05
245.004	0.49
245.378	0.37
245.752	0.26
246.126	-0.13
246.5	0.13
246.874	-0.03
247.248	0.22
247.622	-0.15
247.996	0.22
248.37	0.2
248.744	0.17
249.118	0.03
249.492	-0
249.866	0.25
250.24	0.24
250.613	0.13
250.987	0.2
251.361	0.48
251.735	0.17
252.108	0.04
252.482	0.11
252.856	0.23
253.229	0.03
253.603	0.22
253.977	-0.05
254.35	0.22
254.724	0.27
255.097	0.22
255.471	0.27
255.844	0.23
256.218	0.19
256.591	0.14
256.964	0.19
257.338	0.19
257.711	0.29
258.084	0.33
258.458	0.26
258.831	0.08
259.204	0.25
259.577	0.37
259.95	0.11
260.323	0.29
260.697	0.22
261.07	0.26
261.443	0.2
261.816	0.21
262.189	0.18
262.562	0.2
262.935	0.24
263.308	0.2
263.68	0.16
264.053	0.21
264.426	0.22
264.799	0.2
265.172	0.23
265.545	0.18
265.917	0.21
266.29	0.21
266.663	0.18
267.035	0.2
267.408	0.21
267.781	0.21
268.153	0.19
268.526	0.2
268.898	0.16
269.271	0.17
269.643	0.19
270.016	0.19
270.388	0.17
270.76	0.15
271.133	0.16
271.505	0.12
271.877	0.13
272.25	0.2
272.622	0.17
272.994	0.17
273.366	0.13
273.739	0.16
274.111	0.15
274.483	0.14
274.855	0.17
275.227	0.15
275.599	0.16
275.971	0.15
276.343	0.15
276.715	0.15
277.087	0.17
277.459	0.14
277.831	0.16
278.203	0.14
278.574	0.17
278.946	0.16
279.318	0.14
279.69	0.18
280.061	0.16
280.433	0.16
280.805	0.16
281.176	0.17
281.548	0.17
281.92	0.15
282.291	0.17
282.663	0.17
283.034	0.17
283.406	0.17
283.777	0.18
284.148	0.18
284.52	0.19
284.891	0.18
285.262	0.18
285.634	0.19
286.005	0.2
286.376	0.2
286.747	0.21
287.119	0.19
287.49	0.22
287.861	0.21
288.232	0.21
288.603	0.22
288.974	0.22
289.345	0.2
289.716	0.24
290.087	0.22
290.458	0.23
290.829	0.23
291.2	0.23
291.571	0.25
291.941	0.24
292.312	0.24
292.683	0.25
293.054	0.25
293.424	0.24
293.795	0.25
294.166	0.26
294.536	0.26
294.907	0.27
295.277	0.26
295.648	0.27
296.018	0.27
296.389	0.28
296.759	0.27
297.13	0.27
297.5	0.27
297.871	0.27
298.241	0.28
298.611	0.28
298.981	0.29
299.352	0.29
299.722	0.29
300.092	0.28
300.462	0.29
300.832	0.3
301.202	0.29
301.573	0.31
301.943	0.3
302.313	0.31
302.683	0.31
303.053	0.31
303.422	0.33
303.792	0.33
304.162	0.33
304.532	0.33
304.902	0.34
305.272	0.34
305.641	0.34
306.011	0.36
306.381	0.36
306.75	0.35
307.12	0.36
307.49	0.37
307.859	0.37
308.229	0.38
308.598	0.37
308.968	0.37
309.337	0.38
309.707	0.39
310.076	0.39
310.445	0.39
310.815	0.39
311.184	0.39
311.553	0.41
311.923	0.41
312.292	0.41
312.661	0.42
313.03	0.42
313.399	0.43
313.768	0.43
314.137	0.43
314.506	0.44
314.875	0.45
315.244	0.44
315.613	0.46
315.982	0.46
316.351	0.46
316.72	0.46
317.089	0.47
317.458	0.47
317.826	0.49
318.195	0.49
318.564	0.5
318.933	0.49
319.301	0.5
319.67	0.5
320.038	0.51
320.407	0.5
320.775	0.52
321.144	0.53
321.512	0.52
321.881	0.54
322.249	0.54
322.618	0.54
322.986	0.54
323.354	0.55
323.723	0.55
324.091	0.57
324.459	0.58
324.827	0.57
325.195	0.57
325.564	0.58
325.932	0.59
326.3	0.58
326.668	0.59
327.036	0.6
327.404	0.61
327.772	0.6
328.14	0.6
328.508	0.61
328.875	0.62
329.243	0.64
329.611	0.64
329.979	0.66
330.346	0.64
330.714	0.64
331.082	0.65
331.449	0.65
331.817	0.65
332.185	0.66
332.552	0.68
332.92	0.67
333.287	0.69
333.655	0.7
334.022	0.7
334.389	0.72
334.757	0.7
335.124	0.7
335.491	0.71
335.859	0.72
336.226	0.73
336.593	0.71
336.96	0.73
337.327	0.73
337.695	0.74
338.062	0.75
338.429	0.75
338.796	0.75
339.163	0.74
339.53	0.73
339.897	0.75
340.263	0.76
340.63	0.77
340.997	0.76
341.364	0.77
341.731	0.76
342.097	0.78
342.464	0.77
342.831	0.76
343.197	0.78
343.564	0.79
343.931	0.77
344.297	0.78
344.664	0.8
345.03	0.78
345.396	0.8
345.763	0.79
346.129	0.78
346.496	0.79
346.862	0.8
347.228	0.81
347.594	0.77
347.961	0.78
348.327	0.81
348.693	0.8
349.059	0.81
349.425	0.81
349.791	0.8
350.157	0.82
350.523	0.8
350.889	0.84
351.255	0.82
351.621	0.81
351.987	0.8
352.353	0.82
352.719	0.8
353.084	0.8
353.45	0.82
353.816	0.81
354.181	0.81
354.547	0.82
354.913	0.8
355.278	0.79
355.644	0.79
356.009	0.79
356.375	0.77
356.74	0.78
357.106	0.77
357.471	0.8
357.836	0.78
358.202	0.78
358.567	0.76
358.932	0.78
359.297	0.76
359.663	0.77
360.028	0.77
360.393	0.76
360.758	0.78
361.123	0.74
361.488	0.75
361.853	0.74
362.218	0.75
362.583	0.72
362.948	0.71
363.312	0.72
363.677	0.71
364.042	0.72
364.407	0.7
364.772	0.71
365.136	0.7
365.501	0.69
365.865	0.71
366.23	0.68
366.595	0.69
366.959	0.7
367.324	0.68
367.688	0.69
368.052	0.65
368.417	0.66
368.781	0.68
369.145	0.66
369.51	0.64
369.874	0.63
370.238	0.63
370.602	0.62
370.967	0.62
371.331	0.61
371.695	0.61
372.059	0.62
372.423	0.59
372.787	0.62
373.151	0.61
373.515	0.59
373.878	0.58
374.242	0.59
374.606	0.56
374.97	0.56
375.334	0.56
375.697	0.54
376.061	0.56
376.425	0.54
376.788	0.53
377.152	0.52
377.515	0.51
377.879	0.51
378.242	0.5
378.606	0.47
378.969	0.51
379.333	0.48
379.696	0.47
380.059	0.47
380.422	0.46
380.786	0.47
381.149	0.46
381.512	0.44
381.875	0.44
382.238	0.43
382.601	0.43
382.964	0.4
383.327	0.4
383.69	0.4
384.053	0.4
384.416	0.39
384.779	0.37
385.142	0.37
385.504	0.36
385.867	0.37
386.23	0.35
386.593	0.36
386.955	0.36
387.318	0.34
387.68	0.33
388.043	0.33
388.405	0.32
388.768	0.31
389.13	0.31
389.493	0.3
389.855	0.3
390.217	0.31
390.58	0.3
390.942	0.28
391.304	0.29
391.666	0.27
392.028	0.29
392.391	0.28
392.753	0.26
393.115	0.27
393.477	0.26
393.839	0.26
394.201	0.26
394.563	0.26
394.924	0.24
395.286	0.25
395.648	0.24
396.01	0.24
396.371	0.24
396.733	0.24
397.095	0.23
397.456	0.24
397.818	0.22
398.18	0.22
398.541	0.22
398.903	0.22
399.264	0.22
399.625	0.21
399.987	0.21
400.348	0.21
400.709	0.22
401.071	0.22
401.432	0.21
401.793	0.21
402.154	0.2
402.515	0.2
402.876	0.19
403.238	0.21
403.599	0.2
403.96	0.2
404.32	0.2
404.681	0.21
405.042	0.19
405.403	0.2
405.764	0.19
406.125	0.21
406.485	0.2
406.846	0.21
407.207	0.2
407.567	0.19
407.928	0.19
408.288	0.19
408.649	0.18
409.009	0.19
409.37	0.18
409.73	0.18
410.091	0.18
410.451	0.17
410.811	0.18
411.171	0.18
411.532	0.17
411.892	0.18
412.252	0.16
412.612	0.18
412.972	0.17
413.332	0.17
413.692	0.17
414.052	0.17
414.412	0.18
414.772	0.2
415.132	0.18
415.492	0.18
415.851	0.18
416.211	0.17
416.571	0.18
416.931	0.17
417.29	0.19
417.65	0.17
418.009	0.19
418.369	0.18
418.728	0.17
419.088	0.17
419.447	0.17
419.807	0.16
420.166	0.17
420.525	0.17
420.884	0.17
421.244	0.17
421.603	0.18
421.962	0.17
422.321	0.16
422.68	0.17
423.039	0.17
423.398	0.16
423.757	0.16
424.116	0.16
424.475	0.17
424.834	0.17
425.193	0.17
425.551	0.15
425.91	0.15
426.269	0.17
426.628	0.16
426.986	0.16
427.345	0.15
427.703	0.17
428.062	0.18
428.42	0.16
428.779	0.15
429.137	0.16
429.496	0.16
429.854	0.16
430.212	0.16
430.57	0.17
430.929	0.15
431.287	0.15
431.645	0.15
432.003	0.15
432.361	0.16
432.719	0.16
433.077	0.14
433.435	0.15
433.793	0.14
434.151	0.13
434.509	0.15
434.866	0.15
435.224	0.14
435.582	0.16
435.94	0.15
436.297	0.14
436.655	0.13
437.012	0.15
437.37	0.15
437.727	0.14
438.085	0.15
438.442	0.13
438.8	0.14
439.157	0.13
439.514	0.14
439.872	0.14
440.229	0.14
440.586	0.13
440.943	0.15
441.3	0.12
441.657	0.14
442.014	0.13
442.371	0.13
442.728	0.13
443.085	0.14
443.442	0.13
443.799	0.12
444.156	0.12
444.513	0.11
444.869	0.12
445.226	0.13
445.583	0.13
445.939	0.13
446.296	0.12
446.652	0.13
447.009	0.12
447.365	0.12
447.722	0.12
448.078	0.11
448.434	0.11
448.791	0.13
449.147	0.1
449.503	0.12
449.859	0.1
450.215	0.09
450.571	0.1
450.928	0.1
451.284	0.1
451.64	0.12
451.995	0.11
452.351	0.1
452.707	0.09
453.063	0.1
453.419	0.1
453.775	0.09
454.13	0.1
454.486	0.1
454.842	0.1
455.197	0.09
455.553	0.09
455.908	0.09
456.264	0.08
456.619	0.08
456.975	0.08
457.33	0.08
457.685	0.09
458.04	0.08
458.396	0.08
458.751	0.08
459.106	0.09
459.461	0.08
459.816	0.08
460.171	0.08
460.526	0.07
460.881	0.07
461.236	0.07
461.591	0.07
461.946	0.08
462.301	0.06
462.655	0.07
463.01	0.06
463.365	0.05
463.719	0.06
464.074	0.05
464.428	0.05
464.783	0.05
465.137	0.05
465.492	0.05
465.846	0.05
466.201	0.05
466.555	0.05
466.909	0.05
467.263	0.04
467.618	0.04
467.972	0.04
468.326	0.04
468.68	0.04
469.034	0.03
469.388	0.03
469.742	0.03
470.096	0.03
470.45	0.03
470.804	0.02
471.157	0.02
471.511	0.02
471.865	0.03
472.218	0.02
472.572	0.03
472.926	0.02
473.279	0.03
473.633	0.03
473.986	0.03
474.34	0.02
474.693	0.01
475.046	0.02
475.4	0.01
475.753	0.02
476.106	0.01
476.459	0.01
476.812	0.02
477.165	0.01
477.519	0.02
477.872	0.01
478.224	0
478.577	0.02
478.93	0.02
479.283	0.02
479.636	-0
479.989	0.01
480.341	0
480.694	0.01
481.047	0.01
481.399	0.01
481.752	-0
482.104	-0
482.457	0
482.809	-0.01
483.162	0
483.514	-0
483.866	-0
484.219	0
484.571	-0
484.923	-0
485.275	0
485.627	-0.01
485.979	-0.01
486.331	0.01
486.683	0.01
487.035	0.01
487.387	0.01
487.739	0.01
488.091	0
488.443	-0.01
488.794	-0
489.146	-0.01
489.498	-0.01
489.849	-0.01
490.201	-0.01
490.552	-0.01
490.904	-0.02
491.255	-0.02
491.607	-0.01
491.958	0.01
492.309	0
492.661	-0
493.012	0
493.363	-0.01
493.714	-0.01
494.065	-0.01
494.416	-0.01
494.767	-0.01
495.118	-0
495.469	-0.01
495.82	-0
496.171	0
496.522	-0.01
496.872	0.01
497.223	-0.01
497.574	-0.02
497.924	-0
498.275	0
498.626	-0
498.976	-0.02
499.327	-0
499.677	-0.01
500.027	-0.02
500.378	-0.01
500.728	-0.03
501.078	-0.01
501.428	-0.02
501.779	-0.02
502.129	-0.02
502.479	-0.01
502.829	-0.02
503.179	-0.02
503.529	-0.01
503.879	-0.01
504.229	0
504.578	-0.03
504.928	0
505.278	-0.02
505.628	-0.02
505.977	-0.02
506.327	-0.02
506.676	-0.02
507.026	-0.01
507.375	-0.02
507.725	-0.03
508.074	-0.02
508.424	-0.03
508.773	-0.03
509.122	-0.02
509.471	-0.02
509.82	-0.01
510.17	-0.01
510.519	-0.01
510.868	-0.02
511.217	-0
511.566	-0.02
511.915	-0.01
512.263	-0.01
512.612	-0.01
512.961	-0.02
513.31	-0.01
513.659	-0.02
514.007	-0.03
514.356	-0.02
514.704	-0.02
515.053	-0.01
515.401	-0.02
515.75	-0.02
516.098	-0.04
516.447	-0.02
516.795	-0.03
517.143	-0.03
517.491	-0.03
517.839	-0.04
518.188	-0.02
518.536	-0.03
518.884	-0.02
519.232	-0.04
519.58	-0.03
519.928	-0.01
520.275	-0.02
520.623	-0.02
520.971	-0.02
521.319	-0.02
521.666	-0.04
522.014	-0.03
522.362	-0.03
522.709	-0.03
523.057	-0.04
523.404	-0.03
523.752	-0.02
524.099	-0.03
524.446	-0.03
524.794	-0.04
525.141	-0.02
525.488	-0.03
525.835	-0.01
526.182	-0.02
526.529	-0.03
526.876	-0.02
527.223	-0.02
527.57	-0.03
527.917	-0.03
528.264	-0.02
528.611	-0.03
528.958	-0.02
529.304	-0.04
529.651	-0.04
529.998	-0.04
530.344	-0.03
530.691	-0.04
531.037	-0.04
531.384	-0.04
531.73	-0.03
532.076	-0.04
532.423	-0.03
532.769	-0.03
533.115	-0.02
533.461	-0.05
533.807	-0.03
534.154	-0.02
534.5	-0.02
534.846	-0.03
535.192	-0.02
535.537	-0.04
535.883	-0.04
536.229	-0.03
536.575	-0.02
536.921	-0.04
537.266	-0.03
537.612	-0.04
537.957	-0.01
538.303	-0.04
538.649	-0.03
538.994	-0.03
539.339	-0.03
539.685	-0.04
540.03	-0.03
540.375	-0.03
540.721	-0.03
541.066	-0.03
541.411	-0.02
541.756	-0.03
542.101	-0.03
542.446	-0.02
542.791	-0.02
543.136	-0.02
543.481	-0.03
543.825	-0.03
544.17	-0.04
544.515	-0.03
544.86	-0.04
545.204	-0.04
545.549	-0.02
545.893	-0.05
546.238	-0.03
546.582	-0.03
546.927	-0.04
547.271	-0.03
547.615	-0.04
547.96	-0.04
548.304	-0.03
548.648	-0.04
548.992	-0.04
549.336	-0.03
549.68	-0.02
550.024	-0.03
550.368	-0.03
550.712	-0.02
551.056	-0.04
551.4	-0.03
551.743	-0.02
552.087	-0.02
552.431	-0.03
552.774	-0.02
553.118	-0.03
553.462	-0.02
553.805	-0.02
554.148	-0.03
554.492	-0.03
554.835	-0.04
555.178	-0.03
555.522	-0.05
555.865	-0.03
556.208	-0.04
556.551	-0.04
556.894	-0.05
557.237	-0.03
557.58	-0.04
557.923	-0.04
558.266	-0.02
558.609	-0.02
558.952	-0.04
559.294	-0.03
559.637	-0.05
559.98	-0.03
560.322	-0.02
560.665	-0.04
561.007	-0.02
561.35	-0.04
561.692	-0.02
562.034	-0.04
562.377	-0.03
562.719	-0.03
563.061	-0.02
563.403	-0.02
563.745	-0.03
564.088	-0.03
564.43	-0.02
564.772	-0.03
565.113	-0.03
565.455	-0.03
565.797	-0.03
566.139	-0.03
566.481	-0.03
566.822	-0.03
567.164	-0.03
567.506	-0.04
567.847	-0.03
568.189	-0.02
568.53	-0.04
568.872	-0.04
569.213	-0.03
569.554	-0.03
569.895	-0.02
570.237	-0.03
570.578	-0.03
570.919	-0.03
571.26	-0.03
571.601	-0.02
571.942	-0.03
572.283	-0.03
572.624	-0.02
572.965	-0.01
573.306	-0.03
573.646	-0.02
573.987	-0.03
574.328	-0.04
574.668	-0.04
575.009	-0.04
575.349	-0.04
575.69	-0.03
576.03	-0.02
576.37	-0.04
576.711	-0.03
577.051	-0.03
577.391	-0.03
577.731	-0.03
578.072	-0.02
578.412	-0.03
578.752	-0.04
579.092	-0.02
579.431	-0.03
579.771	-0.03
580.111	-0.02
580.451	-0.02
580.791	-0.03
581.13	-0.02
581.47	-0.03
581.81	-0.03
582.149	-0.03
582.489	-0.04
582.828	-0.02
583.167	-0.02
583.507	-0.02
583.846	-0.03
584.185	-0.03
584.525	-0.02
584.864	-0.02
585.203	-0.03
585.542	-0.02
585.881	-0.03
586.22	-0.02
586.559	-0.03
586.898	-0.03
587.236	-0.03
587.575	-0.03
587.914	-0.03
588.252	-0.02
588.591	-0.03
588.93	-0.03
589.268	-0.04
589.607	-0.02
589.945	-0.02
590.283	-0.04
590.622	-0.03
590.96	-0.03
591.298	-0.03
591.636	-0.03
591.974	-0.04
592.313	-0.03
592.651	-0.03
592.989	-0.05
593.326	-0.04
593.664	-0.04
594.002	-0.04
594.34	-0.04
594.678	-0.05
595.015	-0.04
595.353	-0.03
595.691	-0.03
596.028	-0.03
596.366	-0.04
596.703	-0.04
597.04	-0.04
597.378	-0.03
597.715	-0.05
598.052	-0.04
598.389	-0.06
598.726	-0.04
599.064	-0.04
599.401	-0.04
599.738	-0.04
600.074	-0.04
600.411	-0.05
600.748	-0.04
601.085	-0.03
601.422	-0.03
601.758	-0.02
602.095	-0.02
602.432	-0.02
602.768	-0.03
603.105	-0.01
603.441	-0.02
603.777	-0.03
604.114	-0.03
604.45	-0.04
604.786	-0.03
605.122	-0.03
605.459	-0.04
605.795	-0.03
606.131	-0.02
606.467	-0.03
606.803	-0.02
607.139	-0.03
607.474	-0.02
607.81	-0.03
608.146	-0.03
608.482	-0.03
608.817	-0.03
609.153	-0.03
609.488	-0.04
609.824	-0.03
610.159	-0.04
610.495	-0.05
610.83	-0.04
611.165	-0.03
611.5	-0.05
611.836	-0.04
612.171	-0.04
612.506	-0.04
612.841	-0.03
613.176	-0.04
613.511	-0.04
613.845	-0.04
614.18	-0.03
614.515	-0.04
614.85	-0.04
615.184	-0.03
615.519	-0.03
615.854	-0.04
616.188	-0.03
616.523	-0.03
616.857	-0.04
617.191	-0.03
617.526	-0.02
617.86	-0.04
618.194	-0.04
618.528	-0.03
618.862	-0.06
619.196	-0.04
619.53	-0.02
619.864	-0.05
620.198	-0.03
620.532	-0.03
620.866	-0.04
621.2	-0.04
621.533	-0.04
621.867	-0.04
622.201	-0.02
622.534	-0.03
622.868	-0.03
623.201	-0.03
623.534	-0.03
623.868	-0.02
624.201	-0.03
624.534	-0.03
624.868	-0.03
625.201	-0.03
625.534	-0.03
625.867	-0.04
626.2	-0.02
626.533	-0.03
626.865	-0.04
627.198	-0.04
627.531	-0.05
627.864	-0.03
628.196	-0.04
628.529	-0.03
628.862	-0.04
629.194	-0.03
629.527	-0.04
629.859	-0.05
630.191	-0.03
630.524	-0.05
630.856	-0.04
631.188	-0.04
631.52	-0.05
631.852	-0.04
632.184	-0.04
632.516	-0.04
632.848	-0.06
633.18	-0.06
633.512	-0.05
633.844	-0.05
634.175	-0.06
634.507	-0.04
634.839	-0.04
635.17	-0.04
635.502	-0.04
635.833	-0.04
636.165	-0.04
636.496	-0.04
636.827	-0.04
637.159	-0.04
637.49	-0.04
637.821	-0.05
638.152	-0.03
638.483	-0.03
638.814	-0.05
639.145	-0.05
639.476	-0.04
639.807	-0.05
640.137	-0.04
640.468	-0.03
640.799	-0.04
641.129	-0.05
641.46	-0.05
641.791	-0.06
642.121	-0.06
642.451	-0.05
642.782	-0.06
643.112	-0.05
643.442	-0.04
643.773	-0.05
644.103	-0.04
644.433	-0.04
644.763	-0.04
645.093	-0.04
645.423	-0.05
645.753	-0.04
646.082	-0.05
646.412	-0.03
646.742	-0.04
647.072	-0.05
647.401	-0.03
647.731	-0.04
648.06	-0.04
648.39	-0.04
648.719	-0.03
649.048	-0.04
649.378	-0.04
649.707	-0.05
650.036	-0.05
650.365	-0.04
650.694	-0.04
651.023	-0.05
651.352	-0.04
651.681	-0.04
652.01	-0.03
652.339	-0.02
652.668	-0.04
652.996	-0.03
653.325	-0.04
653.654	-0.04
653.982	-0.04
654.311	-0.04
654.639	-0.03
654.967	-0.04
655.296	-0.04
655.624	-0.05
655.952	-0.06
656.28	-0.07
656.609	-0.05
656.937	-0.04
657.265	-0.03
657.593	-0.02
657.92	-0.01
658.248	-0.02
658.576	-0.02
658.904	-0.03
659.231	-0.04
659.559	-0.04
659.887	-0.04
660.214	-0.03
660.542	-0.03
660.869	-0.04
661.196	-0.03
661.524	-0.04
661.851	-0.03
662.178	-0.03
662.505	-0.04
662.832	-0.04
663.159	-0.05
663.486	-0.05
663.813	-0.04
664.14	-0.05
664.467	-0.03
664.794	-0.04
665.12	-0.04
665.447	-0.03
665.774	-0.04
666.1	-0.04
666.427	-0.06
666.753	-0.03
667.079	-0.05
667.406	-0.03
667.732	-0.04
668.058	-0.03
668.384	-0.04
668.71	-0.04
669.036	-0.04
669.362	-0.04
669.688	-0.04
670.014	-0.04
670.34	-0.04
670.666	-0.04
670.991	-0.04
671.317	-0.04
671.643	-0.06
671.968	-0.05
672.294	-0.05
672.619	-0.07
672.945	-0.06
673.27	-0.05
673.595	-0.05
673.92	-0.05
674.246	-0.05
674.571	-0.05
674.896	-0.06
675.221	-0.06
675.546	-0.05
675.87	-0.06
676.195	-0.05
676.52	-0.06
676.845	-0.05
677.169	-0.05
677.494	-0.04
677.819	-0.04
678.143	-0.04
678.468	-0.04
678.792	-0.05
679.116	-0.04
679.44	-0.03
679.765	-0.03
680.089	-0.05
680.413	-0.04
680.737	-0.04
681.061	-0.05
681.385	-0.03
681.709	-0.04
682.033	-0.05
682.356	-0.05
682.68	-0.04
683.004	-0.04
683.327	-0.05
683.651	-0.05
683.974	-0.05
684.298	-0.06
684.621	-0.04
684.944	-0.05
685.268	-0.05
685.591	-0.05
685.914	-0.04
686.237	-0.05
686.56	-0.05
686.883	-0.06
687.206	-0.05
687.529	-0.05
687.852	-0.05
688.175	-0.04
688.497	-0.05
688.82	-0.06
689.142	-0.06
689.465	-0.06
689.787	-0.06
690.11	-0.07
690.432	-0.07
690.755	-0.07
691.077	-0.06
691.399	-0.06
691.721	-0.06
692.043	-0.06
692.365	-0.05
692.687	-0.05
693.009	-0.06
693.331	-0.05
693.653	-0.05
693.974	-0.06
694.296	-0.06
694.618	-0.06
694.939	-0.06
695.261	-0.06
695.582	-0.05
695.904	-0.05
696.225	-0.07
696.546	-0.05
696.868	-0.04
697.189	-0.06
697.51	-0.05
697.831	-0.05
698.152	-0.04
698.473	-0.05
698.794	-0.03
699.114	-0.05
699.435	-0.06
699.756	-0.05
700.077	-0.06
700.397	-0.05
700.718	-0.06
701.038	-0.05
701.359	-0.05
701.679	-0.05
701.999	-0.04
702.32	-0.06
702.64	-0.06
702.96	-0.05
703.28	-0.06
703.6	-0.05
703.92	-0.05
704.24	-0.05
704.56	-0.05
704.879	-0.05
705.199	-0.06
705.519	-0.06
705.838	-0.07
706.158	-0.06
706.478	-0.06
706.797	-0.06
707.116	-0.05
707.436	-0.05
707.755	-0.05
708.074	-0.05
708.393	-0.05
708.712	-0.03
709.031	-0.04
709.35	-0.05
709.669	-0.05
709.988	-0.04
710.307	-0.04
710.626	-0.05
710.944	-0.04
711.263	-0.05
711.582	-0.05
711.9	-0.06
712.219	-0.05
712.537	-0.06
712.855	-0.06
713.174	-0.06
713.492	-0.05
713.81	-0.06
714.128	-0.06
714.446	-0.06
714.764	-0.06
715.082	-0.05
715.4	-0.05
715.718	-0.04
716.035	-0.04
716.353	-0.03
716.671	-0.04
716.988	-0.05
717.306	-0.04
717.623	-0.04
717.941	-0.05
718.258	-0.05
718.575	-0.05
718.893	-0.06
719.21	-0.06
719.527	-0.05
719.844	-0.07
720.161	-0.06
720.478	-0.06
720.795	-0.06
721.112	-0.07
721.428	-0.06
721.745	-0.05
722.062	-0.05
722.378	-0.07
722.695	-0.05
723.011	-0.07
723.328	-0.04
723.644	-0.06
723.96	-0.05
724.276	-0.06
724.593	-0.05
724.909	-0.04
725.225	-0.07
725.541	-0.06
725.857	-0.06
726.173	-0.06
726.488	-0.06
726.804	-0.06
727.12	-0.06
727.435	-0.04
727.751	-0.06
728.067	-0.06
728.382	-0.06
728.697	-0.06
729.013	-0.05
729.328	-0.05
729.643	-0.05
729.958	-0.05
730.273	-0.05
730.588	-0.05
730.903	-0.05
731.218	-0.05
731.533	-0.04
731.848	-0.05
732.163	-0.04
732.477	-0.05
732.792	-0.04
733.107	-0.04
733.421	-0.04
733.736	-0.05
734.05	-0.05
734.364	-0.03
734.678	-0.04
734.993	-0.05
735.307	-0.04
735.621	-0.03
735.935	-0.04
736.249	-0.04
736.563	-0.03
736.877	-0.03
737.19	-0.05
737.504	-0.04
737.818	-0.04
738.131	-0.04
738.445	-0.04
738.758	-0.04
739.072	-0.05
739.385	-0.04
739.698	-0.04
740.012	-0.04
740.325	-0.03
740.638	-0.03
740.951	-0.04
741.264	-0.04
741.577	-0.04
741.89	-0.06
742.203	-0.04
742.515	-0.04
742.828	-0.05
743.141	-0.04
743.453	-0.04
743.766	-0.03
744.078	-0.04
744.391	-0.04
744.703	-0.04
745.015	-0.04
745.327	-0.03
745.639	-0.03
745.952	-0.04
746.264	-0.04
746.575	-0.03
746.887	-0.03
747.199	-0.05
747.511	-0.05
747.823	-0.05
748.134	-0.05
748.446	-0.05
748.757	-0.05
749.069	-0.06
749.38	-0.06
749.692	-0.06
750.003	-0.06
750.314	-0.06
750.625	-0.05
750.936	-0.05
751.248	-0.04
751.559	-0.05
751.869	-0.05
752.18	-0.05
752.491	-0.05
752.802	-0.05
753.112	-0.05
753.423	-0.04
753.734	-0.04
754.044	-0.07
754.355	-0.04
754.665	-0.05
754.975	-0.05
755.285	-0.04
755.596	-0.04
755.906	-0.03
756.216	-0.03
756.526	-0.03
756.836	-0.02
757.146	-0.01
757.455	-0.02
757.765	-0.02
758.075	-0.01
758.385	-0.01
758.694	-0.01
759.004	-0.01
759.313	-0
759.622	-0
759.932	0
760.241	-0.01
760.55	-0.01
760.859	-0.01
761.168	-0.02
761.477	-0.02
761.786	-0.04
762.095	-0.04
762.404	-0.05
762.713	-0.04
763.021	-0.04
763.33	-0.04
763.639	-0.02
763.947	-0.03
764.256	-0.03
764.564	-0.03
764.872	-0.01
765.181	-0.02
765.489	-0.02
765.797	-0.01
766.105	-0.02
766.413	-0.02
766.721	-0.03
767.029	-0.03
767.337	-0.03
767.644	-0.04
767.952	-0.02
768.26	-0.02
768.567	-0.03
768.875	-0.02
769.182	-0.03
769.49	-0.04
769.797	-0.03
770.104	-0.04
770.411	-0.03
770.718	-0.02
771.026	-0.03
771.333	-0.01
771.639	-0.02
771.946	-0.03
772.253	-0.03
772.56	-0.02
772.867	-0.03
773.173	-0.04
773.48	-0.03
773.786	-0.04
774.093	-0.04
774.399	-0.03
774.705	-0.04
775.012	-0.05
775.318	-0.03
775.624	-0.04
775.93	-0.02
776.236	-0.03
776.542	-0.03
776.848	-0.04
777.154	-0.02
777.459	-0.04
777.765	-0.03
778.071	-0.03
778.376	-0.04
778.682	-0.03
778.987	-0.04
779.292	-0.03
779.598	-0.03
779.903	-0.03
780.208	-0.03
780.513	-0.03
780.818	-0.03
781.123	-0.02
781.428	-0.03
781.733	-0.02
782.038	-0.02
782.343	-0.02
782.647	-0.01
782.952	-0
783.256	-0
783.561	-0
783.865	-0.03
784.17	-0.01
784.474	-0.01
784.778	-0.01
785.082	-0
785.386	-0.02
785.69	-0.01
785.994	-0.01
786.298	-0.02
786.602	0
786.906	-0.01
787.209	0
787.513	0.01
787.817	-0.01
788.12	0.02
788.424	0.02
788.727	0
789.03	0.02
789.333	0.01
789.637	-0.01
789.94	0.01
790.243	0.01
790.546	0.02
790.849	0.01
791.152	0.01
791.454	0.01
791.757	0
792.06	-0.02
792.362	-0
792.665	-0.03
792.967	-0.01
793.27	-0
793.572	-0
793.874	0.01
794.177	0.03
794.479	0.04
794.781	0.03
795.083	0.03
795.385	0.03
795.687	0.05
795.989	0.02
796.29	-0
796.592	0.01
796.894	-0.01
797.195	0.05
797.497	0.02
797.798	0.01
798.1	0.03
798.401	0.04
798.702	0
799.003	0
799.304	0.03
799.605	0.02
799.906	0.02
800.207	0.03
800.508	0.03
800.809	0.03
801.11	0.05
801.41	0.03
801.711	0.02
802.011	0.04
802.312	0.06
802.612	0
802.913	0.05
803.213	0.05
803.513	0.06
803.813	0.04
804.113	0.04
804.413	0.03
804.713	0.03
805.013	0.03
805.313	0.04
805.613	0.03
805.912	0.07
806.212	0.04
806.511	-0.01
806.811	0.03
807.11	0.05
807.41	0.08
807.709	0.07
808.008	0.05
808.307	0.02
808.606	0.07
808.905	0.02
809.204	0.05
809.503	0.04
809.802	0.05
810.101	0.05
810.399	0.03
810.698	0.05
810.997	0
811.295	-0.04
811.593	0.02
811.892	0.02
812.19	0.07
812.488	0.04
812.786	0.09
813.084	0.02
813.383	-0.01
813.68	0.02
813.978	0.09
814.276	0.1
814.574	0.09
814.872	0.07
815.169	0.1
815.467	0.05
815.764	0.04
816.062	0.01
816.359	0.09
816.656	0.1
816.954	0.03
817.251	0.05
817.548	0.05
817.845	0.1
818.142	0.1
818.439	0.01
818.735	0.01
819.032	0.05
819.329	0.06
819.626	0.01
819.922	0.01
820.219	0.03
820.515	0.1
820.811	0.03
821.108	0.01
821.404	0.05
821.7	0.02
821.996	0.07
822.292	0.05
822.588	0.03
822.884	0.07
823.18	0.02
823.475	0.06
823.771	0.05
824.067	0.05
824.362	0.09
824.658	0.01
824.953	0.02
825.249	0.06
825.544	0.02
825.839	0.08
826.134	0.05
826.429	0.09
826.724	0.02
827.019	0.01
827.314	-0.01
827.609	-0.01
827.904	-0.02
828.198	0.1
828.493	0.06
828.787	0.04
829.082	0.08
829.376	0.11
829.671	0.01
829.965	0.09
830.259	-0.04
830.553	-0.06
830.847	0.05
831.141	0.05
831.435	0.12
831.729	0.13
832.023	0.07
832.317	0.04
832.61	0.01
832.904	0.02
833.197	0.08
833.491	-0.08
833.784	-0.06
834.077	-0.04
834.371	0.04
834.664	0
834.957	0.05
835.25	0.09
835.543	0.06
835.836	-0.08
836.129	0.09
836.421	-0.04
836.714	0.02
837.007	0.02
837.299	0
837.592	-0.02
837.884	-0.04
838.177	0.16
838.469	0.01
838.761	0.05
839.053	0.1
839.345	0.17
839.637	-0.04
839.929	0.03
840.221	0.06
840.513	-0.07
840.805	-0
841.096	0.12
841.388	0.02
841.68	-0.01
841.971	-0.07
842.262	-0.02
842.554	0.08
842.845	0.19
843.136	-0.12
843.427	0.1
843.718	0.03
844.009	0.05
844.3	-0.07
844.591	-0.1
844.882	-0.23
845.173	0.08
845.463	-0.07
845.754	0.01
846.044	-0.04
846.335	0.16
846.625	-0.02
846.915	-0.2
847.206	0.25
847.496	-0.11
847.786	-0.13
848.076	-0.4
848.366	0.16
848.656	-0.03
848.945	-0.05
849.235	0.2
849.525	-0.2
849.814	-0.09
850.104	0.06
850.393	-0.43
850.683	-0.07
850.972	-0.38
851.261	0.94
851.551	-0.35
851.84	-0.12
852.129	-0.32
852.418	-0.12
852.707	-0.26
852.995	-0.19
853.284	0.2
853.573	-0.07
853.862	-0.14
854.15	-0.15
854.439	-0.37
854.727	-0.67
855.015	-0.13
855.304	-0.16
855.592	-0.15
855.88	-0.23
856.168	-0.28
856.456	0.01
856.744	-0.27
857.032	-0.22
857.32	-0.17
857.607	-0.36
857.895	-0.16
858.183	-0.8
858.47	-0.17
858.757	-0
859.045	-0
859.332	-0
859.619	0.18
859.907	-0.35
860.194	-0.26
860.481	-0
860.768	-0.19
861.054	-0
861.341	-0
861.628	-0
861.915	-0.67
862.201	-0.34
862.488	-0.29
862.774	-0
863.061	0.41
863.347	0.03
863.633	-0
863.919	0.18
864.205	-0
864.491	-0.52
864.777	-0.78
865.063	-0.03
865.349	-0
865.635	1.04
865.92	-0.45
866.206	-0.28
866.492	-0
866.777	-0
867.062	-0
867.348	-0
867.633	-0
867.918	-0
868.203	-0
868.488	-0
868.773	-0
869.058	0.06
869.343	0.11
869.628	-0
869.912	-0
870.197	-0
870.482	-0
870.766	-0.88
871.05	-0
871.335	-0.44
871.619	-0.05
871.903	0.36
872.187	0.16
872.471	0.45
872.755	-0
873.039	0.2
873.323	-0.14
873.607	-0
873.89	-0.43
874.174	0.8
874.458	0.08
874.741	0.66
875.024	-0
875.308	0.66
875.591	-0
875.874	0.21
876.157	-0
876.44	-0
876.723	0.31
877.006	0.16
877.289	-0.48
877.572	-0
877.854	-0.11
878.137	-0.05
878.42	-0
878.702	0.23
878.984	-0.33
879.267	-0
879.549	-0
879.831	0.95
880.113	-0.5
880.395	-0.54
880.677	-0
880.959	-0
