Data from c2t_JH05_50uM_Absorbance_11-14-12-008.txt Node
Date: Thu Dec 21 11:14:12 GMT 2017
User: egn-admin
Spectrometer: OFX00224
Trigger mode: 0
Integration Time (sec): 5.000000E-2
Scans to average: 1
Nonlinearity correction enabled: false
Boxcar width: 0
Storing dark spectrum: false
XAxis mode: Wavelengths
Number of Pixels in Spectrum: 2136
>>>>>Begin Spectral Data<<<<<
154.91	-0
155.289	-0.14
155.669	1.15
156.048	0.32
156.428	-0
156.807	-0.02
157.186	-0.07
157.566	-0.18
157.945	0.41
158.325	-0.85
158.704	-0
159.083	-0
159.462	0.41
159.842	-0
160.221	-0.07
160.6	0.3
160.979	-0.76
161.359	-0
161.738	-0.04
162.117	-0.55
162.496	-0
162.875	-0.92
163.254	0.04
163.633	-0.03
164.012	-0.4
164.391	-0
164.77	-0
165.149	0.6
165.528	-0
165.907	-0
166.286	-0
166.665	0.35
167.044	-0.29
167.423	-0.24
167.802	-0
168.181	-0
168.559	-0
168.938	0.54
169.317	0.28
169.696	-0.19
170.074	0.07
170.453	-0.24
170.832	-0.15
171.21	-0.06
171.589	0.48
171.968	-0.25
172.346	0.57
172.725	-0
173.103	0.65
173.482	-0.05
173.861	-0
174.239	-0
174.617	-0.2
174.996	-0
175.374	-0
175.753	-0
176.131	-0.06
176.51	0.6
176.888	-0
177.266	-0.23
177.645	0.52
178.023	-0.05
178.401	-0
178.779	-0.2
179.158	0.26
179.536	-0
179.914	-0.79
180.292	-0
180.67	0.16
181.048	-0
181.427	-0
181.805	0.03
182.183	0.3
182.561	-0
182.939	-0.19
183.317	-0.15
183.695	-0
184.073	-0.2
184.451	-0.07
184.829	0.35
185.206	0.37
185.584	-0.43
185.962	-0
186.34	-0
186.718	-0.14
187.096	-0
187.473	0.68
187.851	-0
188.229	-0.62
188.607	-0.1
188.984	0.02
189.362	0.36
189.74	-0.11
190.117	0.99
190.495	-0.15
190.872	0.1
191.25	0.07
191.627	-0.2
192.005	-0.02
192.382	-0.36
192.76	-0.17
193.137	-0.56
193.515	-0.34
193.892	-0
194.269	-0.07
194.647	-0.12
195.024	-0.3
195.401	-0.14
195.779	-0.2
196.156	-0.13
196.533	-0.31
196.91	-0.26
197.288	-0.52
197.665	-1.6
198.042	-0.31
198.419	-0.07
198.796	-0.06
199.173	-0.08
199.55	-0.86
199.927	-0.59
200.304	-0.19
200.681	-0.6
201.058	-0
201.435	-0.07
201.812	-0.37
202.189	0.09
202.566	0.27
202.943	-0.03
203.32	0.15
203.697	0.08
204.073	0.17
204.45	0.04
204.827	-0.29
205.204	-0.27
205.58	-0.07
205.957	-0.13
206.334	-0.11
206.71	0.18
207.087	-0.16
207.464	-0.13
207.84	-0.01
208.217	-0.03
208.593	-0.41
208.97	-0.18
209.346	-0.21
209.723	-0.13
210.099	-0.13
210.476	-0.4
210.852	-0.03
211.228	-0.21
211.605	-0.12
211.981	0.16
212.357	-0.03
212.733	-0.03
213.11	0.39
213.486	-0.06
213.862	-0.26
214.238	-0.09
214.614	-0.28
214.991	-0.11
215.367	0.06
215.743	0.3
216.119	0.02
216.495	-0.14
216.871	0.13
217.247	0.38
217.623	-0.03
217.999	-0.15
218.375	-0.11
218.751	0.12
219.127	-0.01
219.502	-0.04
219.878	-0.29
220.254	-0.25
220.63	-0.05
221.006	0.12
221.381	-0.01
221.757	-0.01
222.133	0.1
222.508	0.1
222.884	0.24
223.26	0.12
223.635	-0.15
224.011	-0.22
224.386	0.1
224.762	-0.24
225.137	0.55
225.513	-0.03
225.888	-0.63
226.264	0.09
226.639	0.25
227.014	-0.19
227.39	0.54
227.765	-0.08
228.14	0.23
228.516	0.21
228.891	-0.1
229.266	-0.03
229.641	-0
230.017	0.09
230.392	0.05
230.767	-0.02
231.142	-0.19
231.517	0.07
231.892	0.15
232.267	0.15
232.642	0.23
233.017	-0.07
233.392	0.23
233.767	0.13
234.142	-0.03
234.517	0.08
234.892	0.3
235.267	0.15
235.641	-0.15
236.016	-0.02
236.391	-0.05
236.766	0.19
237.14	-0
237.515	0.03
237.89	0.05
238.264	0.66
238.639	0.22
239.014	-0.12
239.388	-0.06
239.763	0.12
240.137	0.1
240.512	0.09
240.886	0.59
241.261	-0.25
241.635	-0.13
242.009	0.18
242.384	0.12
242.758	0.17
243.132	-0.03
243.507	0.23
243.881	0.14
244.255	-0.06
244.629	-0.18
245.004	0.13
245.378	0.19
245.752	0.3
246.126	-0.06
246.5	0.32
246.874	0.11
247.248	0.13
247.622	0.04
247.996	0.09
248.37	0.33
248.744	0.35
249.118	0.11
249.492	-0.9
249.866	0.31
250.24	0.1
250.613	0.06
250.987	0.17
251.361	0.06
251.735	0.23
252.108	0.28
252.482	0.17
252.856	0.24
253.229	0.15
253.603	0.07
253.977	0.08
254.35	0.15
254.724	0.33
255.097	0.15
255.471	0.24
255.844	0.13
256.218	0.28
256.591	0.34
256.964	0.35
257.338	0.15
257.711	0.28
258.084	0.23
258.458	0.29
258.831	0.25
259.204	0.26
259.577	0.27
259.95	0.33
260.323	0.43
260.697	0.31
261.07	0.35
261.443	0.27
261.816	0.3
262.189	0.24
262.562	0.37
262.935	0.36
263.308	0.25
263.68	0.24
264.053	0.28
264.426	0.27
264.799	0.34
265.172	0.34
265.545	0.26
265.917	0.31
266.29	0.36
266.663	0.29
267.035	0.29
267.408	0.33
267.781	0.31
268.153	0.25
268.526	0.28
268.898	0.24
269.271	0.27
269.643	0.24
270.016	0.28
270.388	0.27
270.76	0.23
271.133	0.22
271.505	0.21
271.877	0.21
272.25	0.23
272.622	0.22
272.994	0.22
273.366	0.21
273.739	0.22
274.111	0.2
274.483	0.21
274.855	0.2
275.227	0.21
275.599	0.21
275.971	0.21
276.343	0.21
276.715	0.19
277.087	0.2
277.459	0.18
277.831	0.19
278.203	0.18
278.574	0.21
278.946	0.18
279.318	0.2
279.69	0.2
280.061	0.2
280.433	0.19
280.805	0.22
281.176	0.2
281.548	0.2
281.92	0.21
282.291	0.21
282.663	0.22
283.034	0.22
283.406	0.21
283.777	0.22
284.148	0.22
284.52	0.22
284.891	0.21
285.262	0.23
285.634	0.24
286.005	0.25
286.376	0.25
286.747	0.24
287.119	0.24
287.49	0.24
287.861	0.26
288.232	0.25
288.603	0.25
288.974	0.26
289.345	0.26
289.716	0.28
290.087	0.27
290.458	0.27
290.829	0.28
291.2	0.28
291.571	0.28
291.941	0.29
292.312	0.29
292.683	0.29
293.054	0.28
293.424	0.3
293.795	0.3
294.166	0.29
294.536	0.3
294.907	0.3
295.277	0.31
295.648	0.31
296.018	0.3
296.389	0.32
296.759	0.31
297.13	0.32
297.5	0.31
297.871	0.31
298.241	0.33
298.611	0.32
298.981	0.33
299.352	0.33
299.722	0.32
300.092	0.32
300.462	0.33
300.832	0.33
301.202	0.33
301.573	0.35
301.943	0.34
302.313	0.35
302.683	0.35
303.053	0.35
303.422	0.35
303.792	0.35
304.162	0.36
304.532	0.36
304.902	0.36
305.272	0.36
305.641	0.36
306.011	0.37
306.381	0.38
306.75	0.37
307.12	0.38
307.49	0.38
307.859	0.37
308.229	0.37
308.598	0.38
308.968	0.38
309.337	0.38
309.707	0.37
310.076	0.38
310.445	0.38
310.815	0.37
311.184	0.38
311.553	0.37
311.923	0.39
312.292	0.38
312.661	0.39
313.03	0.38
313.399	0.38
313.768	0.37
314.137	0.38
314.506	0.38
314.875	0.38
315.244	0.39
315.613	0.39
315.982	0.37
316.351	0.38
316.72	0.38
317.089	0.39
317.458	0.38
317.826	0.38
318.195	0.38
318.564	0.38
318.933	0.38
319.301	0.37
319.67	0.37
320.038	0.37
320.407	0.36
320.775	0.37
321.144	0.38
321.512	0.38
321.881	0.37
322.249	0.36
322.618	0.36
322.986	0.35
323.354	0.35
323.723	0.36
324.091	0.35
324.459	0.35
324.827	0.35
325.195	0.34
325.564	0.35
325.932	0.34
326.3	0.33
326.668	0.33
327.036	0.32
327.404	0.32
327.772	0.31
328.14	0.33
328.508	0.31
328.875	0.32
329.243	0.34
329.611	0.32
329.979	0.32
330.346	0.31
330.714	0.3
331.082	0.3
331.449	0.29
331.817	0.28
332.185	0.28
332.552	0.29
332.92	0.28
333.287	0.27
333.655	0.28
334.022	0.29
334.389	0.28
334.757	0.27
335.124	0.26
335.491	0.26
335.859	0.26
336.226	0.26
336.593	0.25
336.96	0.24
337.327	0.25
337.695	0.24
338.062	0.24
338.429	0.25
338.796	0.23
339.163	0.23
339.53	0.22
339.897	0.23
340.263	0.22
340.63	0.21
340.997	0.2
341.364	0.2
341.731	0.21
342.097	0.2
342.464	0.18
342.831	0.19
343.197	0.18
343.564	0.18
343.931	0.17
344.297	0.17
344.664	0.17
345.03	0.18
345.396	0.17
345.763	0.16
346.129	0.15
346.496	0.16
346.862	0.16
347.228	0.15
347.594	0.13
347.961	0.14
348.327	0.14
348.693	0.14
349.059	0.13
349.425	0.15
349.791	0.13
350.157	0.12
350.523	0.12
350.889	0.13
351.255	0.12
351.621	0.11
351.987	0.11
352.353	0.11
352.719	0.12
353.084	0.1
353.45	0.11
353.816	0.1
354.181	0.11
354.547	0.1
354.913	0.09
355.278	0.09
355.644	0.08
356.009	0.09
356.375	0.08
356.74	0.09
357.106	0.07
357.471	0.08
357.836	0.07
358.202	0.07
358.567	0.06
358.932	0.07
359.297	0.06
359.663	0.07
360.028	0.07
360.393	0.06
360.758	0.06
361.123	0.06
361.488	0.06
361.853	0.07
362.218	0.05
362.583	0.05
362.948	0.06
363.312	0.06
363.677	0.06
364.042	0.05
364.407	0.04
364.772	0.05
365.136	0.04
365.501	0.05
365.865	0.06
366.23	0.04
366.595	0.05
366.959	0.05
367.324	0.04
367.688	0.05
368.052	0.04
368.417	0.04
368.781	0.05
369.145	0.05
369.51	0.02
369.874	0.03
370.238	0.04
370.602	0.03
370.967	0.02
371.331	0.03
371.695	0.04
372.059	0.03
372.423	0.03
372.787	0.04
373.151	0.04
373.515	0.03
373.878	0.03
374.242	0.04
374.606	0.04
374.97	0.03
375.334	0.03
375.697	0.03
376.061	0.04
376.425	0.04
376.788	0.04
377.152	0.03
377.515	0.05
377.879	0.04
378.242	0.04
378.606	0.03
378.969	0.05
379.333	0.04
379.696	0.03
380.059	0.03
380.422	0.03
380.786	0.03
381.149	0.02
381.512	0.04
381.875	0.03
382.238	0.03
382.601	0.04
382.964	0.02
383.327	0.02
383.69	0.03
384.053	0.04
384.416	0.03
384.779	0.03
385.142	0.04
385.504	0.05
385.867	0.03
386.23	0.03
386.593	0.04
386.955	0.05
387.318	0.03
387.68	0.03
388.043	0.04
388.405	0.04
388.768	0.04
389.13	0.03
389.493	0.04
389.855	0.04
390.217	0.05
390.58	0.04
390.942	0.04
391.304	0.04
391.666	0.04
392.028	0.05
392.391	0.05
392.753	0.04
393.115	0.04
393.477	0.05
393.839	0.05
394.201	0.05
394.563	0.06
394.924	0.06
395.286	0.06
395.648	0.05
396.01	0.06
396.371	0.06
396.733	0.06
397.095	0.06
397.456	0.06
397.818	0.06
398.18	0.06
398.541	0.06
398.903	0.06
399.264	0.06
399.625	0.06
399.987	0.06
400.348	0.07
400.709	0.07
401.071	0.07
401.432	0.07
401.793	0.08
402.154	0.07
402.515	0.07
402.876	0.08
403.238	0.08
403.599	0.08
403.96	0.07
404.32	0.08
404.681	0.09
405.042	0.08
405.403	0.07
405.764	0.09
406.125	0.09
406.485	0.09
406.846	0.11
407.207	0.09
407.567	0.09
407.928	0.09
408.288	0.11
408.649	0.1
409.009	0.1
409.37	0.1
409.73	0.1
410.091	0.1
410.451	0.09
410.811	0.1
411.171	0.09
411.532	0.09
411.892	0.1
412.252	0.1
412.612	0.1
412.972	0.11
413.332	0.1
413.692	0.11
414.052	0.11
414.412	0.12
414.772	0.13
415.132	0.12
415.492	0.12
415.851	0.12
416.211	0.12
416.571	0.12
416.931	0.13
417.29	0.15
417.65	0.12
418.009	0.14
418.369	0.13
418.728	0.13
419.088	0.14
419.447	0.13
419.807	0.13
420.166	0.12
420.525	0.13
420.884	0.13
421.244	0.14
421.603	0.14
421.962	0.13
422.321	0.14
422.68	0.14
423.039	0.14
423.398	0.13
423.757	0.14
424.116	0.13
424.475	0.14
424.834	0.14
425.193	0.15
425.551	0.14
425.91	0.14
426.269	0.15
426.628	0.15
426.986	0.14
427.345	0.16
427.703	0.16
428.062	0.15
428.42	0.16
428.779	0.15
429.137	0.16
429.496	0.16
429.854	0.16
430.212	0.17
430.57	0.16
430.929	0.16
431.287	0.16
431.645	0.15
432.003	0.16
432.361	0.16
432.719	0.17
433.077	0.16
433.435	0.16
433.793	0.17
434.151	0.15
434.509	0.15
434.866	0.17
435.224	0.17
435.582	0.17
435.94	0.16
436.297	0.16
436.655	0.15
437.012	0.18
437.37	0.15
437.727	0.16
438.085	0.17
438.442	0.15
438.8	0.15
439.157	0.16
439.514	0.16
439.872	0.17
440.229	0.16
440.586	0.16
440.943	0.17
441.3	0.16
441.657	0.16
442.014	0.15
442.371	0.17
442.728	0.16
443.085	0.17
443.442	0.17
443.799	0.16
444.156	0.16
444.513	0.16
444.869	0.16
445.226	0.16
445.583	0.18
445.939	0.16
446.296	0.16
446.652	0.17
447.009	0.17
447.365	0.16
447.722	0.16
448.078	0.17
448.434	0.17
448.791	0.17
449.147	0.16
449.503	0.16
449.859	0.16
450.215	0.16
450.571	0.18
450.928	0.18
451.284	0.18
451.64	0.17
451.995	0.16
452.351	0.17
452.707	0.17
453.063	0.18
453.419	0.18
453.775	0.18
454.13	0.17
454.486	0.18
454.842	0.19
455.197	0.18
455.553	0.18
455.908	0.19
456.264	0.19
456.619	0.2
456.975	0.19
457.33	0.18
457.685	0.19
458.04	0.19
458.396	0.19
458.751	0.2
459.106	0.22
459.461	0.22
459.816	0.22
460.171	0.22
460.526	0.22
460.881	0.22
461.236	0.22
461.591	0.23
461.946	0.24
462.301	0.24
462.655	0.25
463.01	0.26
463.365	0.27
463.719	0.27
464.074	0.27
464.428	0.27
464.783	0.27
465.137	0.26
465.492	0.28
465.846	0.28
466.201	0.27
466.555	0.28
466.909	0.28
467.263	0.29
467.618	0.3
467.972	0.3
468.326	0.31
468.68	0.31
469.034	0.31
469.388	0.3
469.742	0.31
470.096	0.32
470.45	0.32
470.804	0.31
471.157	0.31
471.511	0.3
471.865	0.31
472.218	0.31
472.572	0.3
472.926	0.28
473.279	0.29
473.633	0.29
473.986	0.29
474.34	0.27
474.693	0.26
475.046	0.26
475.4	0.25
475.753	0.23
476.106	0.23
476.459	0.23
476.812	0.22
477.165	0.22
477.519	0.22
477.872	0.22
478.224	0.21
478.577	0.21
478.93	0.2
479.283	0.21
479.636	0.17
479.989	0.18
480.341	0.17
480.694	0.18
481.047	0.17
481.399	0.16
481.752	0.15
482.104	0.16
482.457	0.15
482.809	0.15
483.162	0.14
483.514	0.14
483.866	0.13
484.219	0.13
484.571	0.13
484.923	0.14
485.275	0.14
485.627	0.12
485.979	0.1
486.331	0.11
486.683	0.1
487.035	0.1
487.387	0.11
487.739	0.1
488.091	0.11
488.443	0.1
488.794	0.11
489.146	0.08
489.498	0.11
489.849	0.09
490.201	0.09
490.552	0.09
490.904	0.1
491.255	0.09
491.607	0.1
491.958	0.09
492.309	0.08
492.661	0.08
493.012	0.07
493.363	0.09
493.714	0.06
494.065	0.06
494.416	0.08
494.767	0.07
495.118	0.06
495.469	0.06
495.82	0.06
496.171	0.06
496.522	0.05
496.872	0.06
497.223	0.05
497.574	0.04
497.924	0.07
498.275	0.08
498.626	0.06
498.976	0.05
499.327	0.04
499.677	0.04
500.027	0.05
500.378	0.03
500.728	0.02
501.078	0.03
501.428	0.03
501.779	0.03
502.129	0.02
502.479	0.03
502.829	0.02
503.179	0.02
503.529	0.04
503.879	0.03
504.229	0.04
504.578	0
504.928	0.03
505.278	0
505.628	0.02
505.977	0
506.327	0.02
506.676	0.02
507.026	0.02
507.375	0
507.725	0
508.074	0.02
508.424	0
508.773	-0.01
509.122	0
509.471	0
509.82	0.01
510.17	0.01
510.519	0.01
510.868	-0.01
511.217	0.01
511.566	0.01
511.915	0.01
512.263	0
512.612	-0
512.961	0.01
513.31	0
513.659	0.02
514.007	-0.01
514.356	-0.01
514.704	-0
515.053	-0
515.401	-0
515.75	0
516.098	-0
516.447	-0.01
516.795	-0.01
517.143	-0.01
517.491	-0.01
517.839	-0.03
518.188	-0.02
518.536	-0.02
518.884	-0.01
519.232	-0.01
519.58	-0.02
519.928	0
520.275	-0.01
520.623	-0
520.971	-0.02
521.319	-0.01
521.666	-0.03
522.014	-0.02
522.362	-0.02
522.709	-0.02
523.057	-0.02
523.404	-0
523.752	-0.02
524.099	-0.02
524.446	-0.03
524.794	-0.05
525.141	-0.02
525.488	-0.02
525.835	-0.02
526.182	-0.03
526.529	-0.02
526.876	-0.03
527.223	-0.02
527.57	-0.02
527.917	-0.02
528.264	-0.03
528.611	-0.03
528.958	-0.03
529.304	-0.03
529.651	-0.03
529.998	-0.02
530.344	-0.03
530.691	-0.03
531.037	-0.02
531.384	-0.02
531.73	-0.01
532.076	-0.03
532.423	-0.02
532.769	-0.02
533.115	-0.02
533.461	-0.04
533.807	-0.03
534.154	-0.03
534.5	-0.03
534.846	-0.02
535.192	-0.02
535.537	-0.03
535.883	-0.02
536.229	-0.03
536.575	-0.03
536.921	-0.03
537.266	-0.03
537.612	-0.03
537.957	-0
538.303	-0.04
538.649	-0.02
538.994	-0.05
539.339	-0.02
539.685	-0.02
540.03	-0.02
540.375	-0.02
540.721	-0.04
541.066	-0.03
541.411	-0.02
541.756	-0.02
542.101	-0.02
542.446	-0.02
542.791	-0.02
543.136	-0.02
543.481	-0.04
543.825	-0.03
544.17	-0.04
544.515	-0.03
544.86	-0.03
545.204	-0.03
545.549	-0.03
545.893	-0.04
546.238	-0.04
546.582	-0.03
546.927	-0.05
547.271	-0.03
547.615	-0.03
547.96	-0.04
548.304	-0.03
548.648	-0.02
548.992	-0.03
549.336	-0.04
549.68	-0.03
550.024	-0.05
550.368	-0.03
550.712	-0.03
551.056	-0.02
551.4	-0.02
551.743	-0.03
552.087	-0.02
552.431	-0.03
552.774	-0.03
553.118	-0.04
553.462	-0.02
553.805	-0.03
554.148	-0.02
554.492	-0.02
554.835	-0.03
555.178	-0.02
555.522	-0.04
555.865	-0.02
556.208	-0.03
556.551	-0.03
556.894	-0.03
557.237	-0.03
557.58	-0.03
557.923	-0.03
558.266	-0.03
558.609	-0.02
558.952	-0.03
559.294	-0.02
559.637	-0.03
559.98	-0.04
560.322	-0.01
560.665	-0.03
561.007	-0.02
561.35	-0.04
561.692	-0.02
562.034	-0.03
562.377	-0.03
562.719	-0.02
563.061	-0.02
563.403	-0.03
563.745	-0.02
564.088	-0.02
564.43	-0.02
564.772	-0.04
565.113	-0.03
565.455	-0.05
565.797	-0.03
566.139	-0.04
566.481	-0.04
566.822	-0.04
567.164	-0.04
567.506	-0.04
567.847	-0.04
568.189	-0.03
568.53	-0.03
568.872	-0.03
569.213	-0.03
569.554	-0.02
569.895	-0.02
570.237	-0.03
570.578	-0.04
570.919	-0.04
571.26	-0.04
571.601	-0.03
571.942	-0.03
572.283	-0.03
572.624	-0.02
572.965	-0.03
573.306	-0.04
573.646	-0.03
573.987	-0.04
574.328	-0.03
574.668	-0.03
575.009	-0.04
575.349	-0.03
575.69	-0.02
576.03	-0.02
576.37	-0.03
576.711	-0.03
577.051	-0.03
577.391	-0.02
577.731	-0.04
578.072	-0.02
578.412	-0.02
578.752	-0.03
579.092	-0.03
579.431	-0.03
579.771	-0.02
580.111	-0.02
580.451	-0.02
580.791	-0.03
581.13	-0.02
581.47	-0.03
581.81	-0.03
582.149	-0.02
582.489	-0.03
582.828	-0.02
583.167	-0.03
583.507	-0.02
583.846	-0.03
584.185	-0.02
584.525	-0.02
584.864	-0.03
585.203	-0.03
585.542	-0.03
585.881	-0.03
586.22	-0.03
586.559	-0.03
586.898	-0.02
587.236	-0.03
587.575	-0.03
587.914	-0.03
588.252	-0.03
588.591	-0.03
588.93	-0.03
589.268	-0.03
589.607	-0.03
589.945	-0.02
590.283	-0.03
590.622	-0.02
590.96	-0.02
591.298	-0.03
591.636	-0.03
591.974	-0.04
592.313	-0.03
592.651	-0.03
592.989	-0.04
593.326	-0.03
593.664	-0.03
594.002	-0.03
594.34	-0.02
594.678	-0.03
595.015	-0.03
595.353	-0.02
595.691	-0.02
596.028	-0.03
596.366	-0.04
596.703	-0.03
597.04	-0.04
597.378	-0.02
597.715	-0.04
598.052	-0.03
598.389	-0.04
598.726	-0.03
599.064	-0.03
599.401	-0.04
599.738	-0.04
600.074	-0.05
600.411	-0.04
600.748	-0.03
601.085	-0.03
601.422	-0.03
601.758	-0.03
602.095	-0.02
602.432	-0.02
602.768	-0.03
603.105	-0.02
603.441	-0.03
603.777	-0.02
604.114	-0.03
604.45	-0.03
604.786	-0.02
605.122	-0.03
605.459	-0.04
605.795	-0.04
606.131	-0.03
606.467	-0.04
606.803	-0.04
607.139	-0.04
607.474	-0.03
607.81	-0.04
608.146	-0.03
608.482	-0.04
608.817	-0.04
609.153	-0.02
609.488	-0.04
609.824	-0.03
610.159	-0.03
610.495	-0.04
610.83	-0.03
611.165	-0.03
611.5	-0.05
611.836	-0.04
612.171	-0.03
612.506	-0.03
612.841	-0.04
613.176	-0.04
613.511	-0.05
613.845	-0.04
614.18	-0.03
614.515	-0.04
614.85	-0.04
615.184	-0.03
615.519	-0.03
615.854	-0.03
616.188	-0.04
616.523	-0.04
616.857	-0.04
617.191	-0.04
617.526	-0.03
617.86	-0.04
618.194	-0.05
618.528	-0.04
618.862	-0.05
619.196	-0.05
619.53	-0.04
619.864	-0.05
620.198	-0.02
620.532	-0.04
620.866	-0.03
621.2	-0.03
621.533	-0.03
621.867	-0.04
622.201	-0.03
622.534	-0.03
622.868	-0.03
623.201	-0.02
623.534	-0.04
623.868	-0.02
624.201	-0.03
624.534	-0.03
624.868	-0.02
625.201	-0.02
625.534	-0.03
625.867	-0.03
626.2	-0.03
626.533	-0.03
626.865	-0.04
627.198	-0.04
627.531	-0.05
627.864	-0.03
628.196	-0.04
628.529	-0.05
628.862	-0.04
629.194	-0.03
629.527	-0.03
629.859	-0.05
630.191	-0.04
630.524	-0.04
630.856	-0.05
631.188	-0.04
631.52	-0.04
631.852	-0.04
632.184	-0.04
632.516	-0.04
632.848	-0.04
633.18	-0.05
633.512	-0.05
633.844	-0.05
634.175	-0.05
634.507	-0.04
634.839	-0.05
635.17	-0.04
635.502	-0.03
635.833	-0.03
636.165	-0.04
636.496	-0.04
636.827	-0.04
637.159	-0.03
637.49	-0.04
637.821	-0.04
638.152	-0.03
638.483	-0.03
638.814	-0.05
639.145	-0.04
639.476	-0.04
639.807	-0.04
640.137	-0.04
640.468	-0.04
640.799	-0.04
641.129	-0.04
641.46	-0.05
641.791	-0.06
642.121	-0.05
642.451	-0.05
642.782	-0.05
643.112	-0.05
643.442	-0.05
643.773	-0.03
644.103	-0.04
644.433	-0.03
644.763	-0.03
645.093	-0.04
645.423	-0.04
645.753	-0.03
646.082	-0.04
646.412	-0.04
646.742	-0.05
647.072	-0.04
647.401	-0.04
647.731	-0.04
648.06	-0.03
648.39	-0.03
648.719	-0.03
649.048	-0.05
649.378	-0.03
649.707	-0.04
650.036	-0.04
650.365	-0.05
650.694	-0.04
651.023	-0.04
651.352	-0.04
651.681	-0.04
652.01	-0.03
652.339	-0.02
652.668	-0.04
652.996	-0.03
653.325	-0.04
653.654	-0.03
653.982	-0.03
654.311	-0.04
654.639	-0.04
654.967	-0.03
655.296	-0.05
655.624	-0.05
655.952	-0.06
656.28	-0.06
656.609	-0.05
656.937	-0.04
657.265	-0.03
657.593	-0.02
657.92	-0.02
658.248	-0.02
658.576	-0.03
658.904	-0.03
659.231	-0.03
659.559	-0.03
659.887	-0.03
660.214	-0.03
660.542	-0.03
660.869	-0.03
661.196	-0.04
661.524	-0.05
661.851	-0.04
662.178	-0.04
662.505	-0.05
662.832	-0.05
663.159	-0.05
663.486	-0.05
663.813	-0.05
664.14	-0.05
664.467	-0.04
664.794	-0.04
665.12	-0.04
665.447	-0.05
665.774	-0.05
666.1	-0.06
666.427	-0.06
666.753	-0.04
667.079	-0.05
667.406	-0.05
667.732	-0.05
668.058	-0.03
668.384	-0.04
668.71	-0.03
669.036	-0.03
669.362	-0.05
669.688	-0.04
670.014	-0.04
670.34	-0.03
670.666	-0.04
670.991	-0.04
671.317	-0.05
671.643	-0.05
671.968	-0.06
672.294	-0.06
672.619	-0.05
672.945	-0.06
673.27	-0.06
673.595	-0.06
673.92	-0.06
674.246	-0.06
674.571	-0.06
674.896	-0.06
675.221	-0.06
675.546	-0.05
675.87	-0.05
676.195	-0.05
676.52	-0.05
676.845	-0.06
677.169	-0.05
677.494	-0.05
677.819	-0.04
678.143	-0.04
678.468	-0.04
678.792	-0.04
679.116	-0.05
679.44	-0.05
679.765	-0.04
680.089	-0.05
680.413	-0.05
680.737	-0.05
681.061	-0.05
681.385	-0.04
681.709	-0.05
682.033	-0.05
682.356	-0.05
682.68	-0.05
683.004	-0.05
683.327	-0.05
683.651	-0.05
683.974	-0.03
684.298	-0.06
684.621	-0.05
684.944	-0.06
685.268	-0.05
685.591	-0.04
685.914	-0.04
686.237	-0.05
686.56	-0.05
686.883	-0.06
687.206	-0.05
687.529	-0.06
687.852	-0.05
688.175	-0.06
688.497	-0.05
688.82	-0.06
689.142	-0.05
689.465	-0.06
689.787	-0.05
690.11	-0.06
690.432	-0.06
690.755	-0.06
691.077	-0.06
691.399	-0.06
691.721	-0.07
692.043	-0.04
692.365	-0.05
692.687	-0.05
693.009	-0.06
693.331	-0.05
693.653	-0.05
693.974	-0.06
694.296	-0.06
694.618	-0.06
694.939	-0.06
695.261	-0.07
695.582	-0.06
695.904	-0.06
696.225	-0.07
696.546	-0.07
696.868	-0.06
697.189	-0.06
697.51	-0.06
697.831	-0.06
698.152	-0.05
698.473	-0.05
698.794	-0.04
699.114	-0.05
699.435	-0.05
699.756	-0.05
700.077	-0.05
700.397	-0.05
700.718	-0.06
701.038	-0.04
701.359	-0.06
701.679	-0.05
701.999	-0.04
702.32	-0.06
702.64	-0.06
702.96	-0.05
703.28	-0.06
703.6	-0.04
703.92	-0.05
704.24	-0.06
704.56	-0.05
704.879	-0.05
705.199	-0.05
705.519	-0.06
705.838	-0.07
706.158	-0.06
706.478	-0.06
706.797	-0.05
707.116	-0.05
707.436	-0.04
707.755	-0.06
708.074	-0.06
708.393	-0.05
708.712	-0.04
709.031	-0.05
709.35	-0.05
709.669	-0.05
709.988	-0.04
710.307	-0.05
710.626	-0.04
710.944	-0.05
711.263	-0.05
711.582	-0.07
711.9	-0.07
712.219	-0.05
712.537	-0.06
712.855	-0.06
713.174	-0.06
713.492	-0.06
713.81	-0.05
714.128	-0.06
714.446	-0.06
714.764	-0.06
715.082	-0.05
715.4	-0.05
715.718	-0.05
716.035	-0.05
716.353	-0.04
716.671	-0.05
716.988	-0.06
717.306	-0.05
717.623	-0.05
717.941	-0.06
718.258	-0.06
718.575	-0.06
718.893	-0.06
719.21	-0.05
719.527	-0.05
719.844	-0.06
720.161	-0.05
720.478	-0.06
720.795	-0.07
721.112	-0.07
721.428	-0.06
721.745	-0.06
722.062	-0.07
722.378	-0.09
722.695	-0.07
723.011	-0.08
723.328	-0.07
723.644	-0.08
723.96	-0.07
724.276	-0.07
724.593	-0.07
724.909	-0.06
725.225	-0.06
725.541	-0.06
725.857	-0.07
726.173	-0.06
726.488	-0.07
726.804	-0.06
727.12	-0.06
727.435	-0.06
727.751	-0.06
728.067	-0.06
728.382	-0.06
728.697	-0.05
729.013	-0.05
729.328	-0.05
729.643	-0.05
729.958	-0.06
730.273	-0.04
730.588	-0.05
730.903	-0.05
731.218	-0.05
731.533	-0.04
731.848	-0.04
732.163	-0.04
732.477	-0.05
732.792	-0.04
733.107	-0.04
733.421	-0.05
733.736	-0.04
734.05	-0.05
734.364	-0.03
734.678	-0.04
734.993	-0.04
735.307	-0.05
735.621	-0.05
735.935	-0.04
736.249	-0.05
736.563	-0.04
736.877	-0.04
737.19	-0.04
737.504	-0.04
737.818	-0.05
738.131	-0.05
738.445	-0.06
738.758	-0.05
739.072	-0.06
739.385	-0.05
739.698	-0.05
740.012	-0.05
740.325	-0.05
740.638	-0.04
740.951	-0.06
741.264	-0.06
741.577	-0.04
741.89	-0.06
742.203	-0.05
742.515	-0.05
742.828	-0.04
743.141	-0.04
743.453	-0.04
743.766	-0.04
744.078	-0.05
744.391	-0.06
744.703	-0.06
745.015	-0.05
745.327	-0.04
745.639	-0.04
745.952	-0.05
746.264	-0.05
746.575	-0.05
746.887	-0.05
747.199	-0.06
747.511	-0.06
747.823	-0.05
748.134	-0.06
748.446	-0.06
748.757	-0.05
749.069	-0.06
749.38	-0.06
749.692	-0.07
750.003	-0.07
750.314	-0.07
750.625	-0.07
750.936	-0.06
751.248	-0.05
751.559	-0.07
751.869	-0.07
752.18	-0.05
752.491	-0.06
752.802	-0.06
753.112	-0.06
753.423	-0.06
753.734	-0.05
754.044	-0.07
754.355	-0.06
754.665	-0.05
754.975	-0.06
755.285	-0.05
755.596	-0.05
755.906	-0.05
756.216	-0.06
756.526	-0.04
756.836	-0.03
757.146	-0.04
757.455	-0.03
757.765	-0.03
758.075	-0.04
758.385	-0.03
758.694	-0.02
759.004	-0.02
759.313	-0.02
759.622	-0.03
759.932	-0.03
760.241	-0.02
760.55	-0.03
760.859	-0.03
761.168	-0.04
761.477	-0.05
761.786	-0.06
762.095	-0.06
762.404	-0.06
762.713	-0.06
763.021	-0.05
763.33	-0.06
763.639	-0.05
763.947	-0.06
764.256	-0.05
764.564	-0.05
764.872	-0.04
765.181	-0.04
765.489	-0.04
765.797	-0.03
766.105	-0.03
766.413	-0.04
766.721	-0.05
767.029	-0.04
767.337	-0.05
767.644	-0.05
767.952	-0.06
768.26	-0.05
768.567	-0.04
768.875	-0.04
769.182	-0.05
769.49	-0.05
769.797	-0.04
770.104	-0.05
770.411	-0.02
770.718	-0.03
771.026	-0.03
771.333	-0.03
771.639	-0.03
771.946	-0.02
772.253	-0.04
772.56	-0.03
772.867	-0.04
773.173	-0.04
773.48	-0.04
773.786	-0.05
774.093	-0.05
774.399	-0.04
774.705	-0.05
775.012	-0.05
775.318	-0.02
775.624	-0.04
775.93	-0.03
776.236	-0.03
776.542	-0.04
776.848	-0.05
777.154	-0.03
777.459	-0.05
777.765	-0.03
778.071	-0.05
778.376	-0.05
778.682	-0.03
778.987	-0.06
779.292	-0.06
779.598	-0.06
779.903	-0.05
780.208	-0.07
780.513	-0.05
780.818	-0.05
781.123	-0.03
781.428	-0.04
781.733	-0.03
782.038	-0.04
782.343	-0.03
782.647	-0.02
782.952	-0.02
783.256	-0.04
783.561	-0.02
783.865	-0.03
784.17	-0.02
784.474	-0.01
784.778	-0.02
785.082	-0.01
785.386	-0.04
785.69	-0.01
785.994	-0.02
786.298	-0.02
786.602	-0.03
786.906	-0.02
787.209	-0.01
787.513	-0.02
787.817	-0.01
788.12	0
788.424	-0.01
788.727	-0.01
789.03	0
789.333	0
789.637	-0.02
789.94	-0.02
790.243	-0.02
790.546	-0
790.849	-0.02
791.152	-0.02
791.454	-0.02
791.757	-0
792.06	-0.03
792.362	0
792.665	-0.05
792.967	-0.02
793.27	0
793.572	0
793.874	-0.01
794.177	0.03
794.479	0.02
794.781	0.02
795.083	0.04
795.385	0.01
795.687	0.03
795.989	0.01
796.29	0.02
796.592	-0
796.894	0.01
797.195	0.03
797.497	-0
797.798	0.01
798.1	-0.02
798.401	-0
798.702	-0.01
799.003	-0.02
799.304	0.01
799.605	-0.01
799.906	-0.01
800.207	0.03
800.508	0.02
800.809	0.01
801.11	0
801.41	0.01
801.711	-0.01
802.011	-0.01
802.312	0.03
802.612	0.01
802.913	0.02
803.213	0.02
803.513	0.05
803.813	-0
804.113	-0.01
804.413	0.03
804.713	0.01
805.013	0.01
805.313	0.01
805.613	0.01
805.912	-0
806.212	0.04
806.511	-0.02
806.811	0.01
807.11	-0
807.41	0.04
807.709	-0.03
808.008	-0
808.307	-0
808.606	0.03
808.905	-0
809.204	0.05
809.503	0.04
809.802	0.03
810.101	0.03
810.399	0.02
810.698	-0.02
810.997	-0.03
811.295	-0.05
811.593	0.01
811.892	0.02
812.19	0.02
812.488	0.03
812.786	0.03
813.084	-0.05
813.383	-0.04
813.68	0.01
813.978	0.04
814.276	0.07
814.574	0.05
814.872	0.03
815.169	0.02
815.467	0.03
815.764	0.03
816.062	-0.02
816.359	-0.01
816.656	0.08
816.954	0.02
817.251	-0.01
817.548	0.02
817.845	0.09
818.142	0.02
818.439	-0.03
818.735	-0.04
819.032	-0.01
819.329	0.01
819.626	-0.03
819.922	-0.01
820.219	-0
820.515	0.09
820.811	0.04
821.108	0.03
821.404	0.05
821.7	-0
821.996	0.03
822.292	0.13
822.588	-0.02
822.884	0.02
823.18	0.04
823.475	0.02
823.771	0.08
824.067	0.05
824.362	0.02
824.658	0
824.953	-0.01
825.249	0.03
825.544	0.02
825.839	0.07
826.134	0.06
826.429	0.03
826.724	-0.04
827.019	-0.06
827.314	-0.08
827.609	0.03
827.904	-0.02
828.198	0
828.493	-0
828.787	0.03
829.082	0.04
829.376	0.08
829.671	-0.04
829.965	-0.01
830.259	0.03
830.553	0.01
830.847	-0.01
831.141	-0.04
831.435	-0.08
831.729	0.06
832.023	-0.12
832.317	-0.05
832.61	-0.02
832.904	0.06
833.197	0.06
833.491	-0.02
833.784	-0.03
834.077	-0.09
834.371	-0.02
834.664	-0.02
834.957	0.08
835.25	0.01
835.543	-0.02
835.836	-0.09
836.129	-0.03
836.421	-0.02
836.714	-0.13
837.007	0.14
837.299	0.03
837.592	-0.05
837.884	-0.09
838.177	-0.03
838.469	0
838.761	-0.01
839.053	0.04
839.345	0.23
839.637	-0.08
839.929	-0.01
840.221	-0.02
840.513	-0.06
840.805	0.04
841.096	-0.1
841.388	-0.05
841.68	-0.3
841.971	-0.05
842.262	-0.04
842.554	0.05
842.845	-0.01
843.136	-0.08
843.427	-0.25
843.718	-0.01
844.009	0.09
844.3	-0.29
844.591	-0.31
844.882	-0.21
845.173	0.01
845.463	-0.07
845.754	-0.19
846.044	-0.13
846.335	-0.15
846.625	-0.06
846.915	-0.42
847.206	-0.03
847.496	-0.19
847.786	-0.16
848.076	-0.32
848.366	-0.18
848.656	-0.09
848.945	-0.04
849.235	-0.1
849.525	-0.39
849.814	-0.11
850.104	-0.17
850.393	-0.43
850.683	-0.56
850.972	-0.3
851.261	-0.09
851.551	-0.38
851.84	-0.22
852.129	-0.34
852.418	-0.13
852.707	-0.27
852.995	0.21
853.284	-0.03
853.573	-0.07
853.862	-0.29
854.15	-0.22
854.439	-0.3
854.727	-0.6
855.015	0.19
855.304	-0.35
855.592	-0.2
855.88	-0.06
856.168	-0.26
856.456	-0.1
856.744	-0.25
857.032	-0.26
857.32	-0.03
857.607	-0.16
857.895	0.73
858.183	-0.55
858.47	-0.13
858.757	-0
859.045	-0
859.332	-0
859.619	-0.03
859.907	-0.3
860.194	-0.37
860.481	-0
860.768	-0
861.054	-0
861.341	-0
861.628	-0
861.915	-0.73
862.201	-0
862.488	-0.53
862.774	-0
863.061	0.13
863.347	0.45
863.633	-0.15
863.919	-0.33
864.205	-0
864.491	-0.33
864.777	-0
865.063	-0.19
865.349	0.04
865.635	-0.16
865.92	-0.54
866.206	-0.33
866.492	-0
866.777	-0.41
867.062	-0.65
867.348	-0
867.633	-0.28
867.918	0.78
868.203	-0
868.488	-0
868.773	-1.08
869.058	-0.19
869.343	-0.36
869.628	-0
869.912	-0
870.197	-0
870.482	-0
870.766	-1.24
871.05	-0
871.335	-0
871.619	0.52
871.903	0.18
872.187	-0.27
872.471	0.75
872.755	-0
873.039	0.09
873.323	-0.03
873.607	-0
873.89	-0.26
874.174	0.54
874.458	-0
874.741	0.66
875.024	0.6
875.308	0.28
875.591	0.07
875.874	-0.04
876.157	-0
876.44	-0
876.723	0.1
877.006	0.34
877.289	-0.46
877.572	-0
877.854	-0.08
878.137	-0.12
878.42	-0
878.702	-0
878.984	-0.71
879.267	-0
879.549	-0
879.831	0.35
880.113	-0.94
880.395	-0.78
880.677	-1.04
880.959	-0.48
