Data from c2t_JH05_50uM_Absorbance_11-14-21-052.txt Node
Date: Thu Dec 21 11:14:21 GMT 2017
User: egn-admin
Spectrometer: OFX00224
Trigger mode: 0
Integration Time (sec): 5.000000E-2
Scans to average: 1
Nonlinearity correction enabled: false
Boxcar width: 0
Storing dark spectrum: false
XAxis mode: Wavelengths
Number of Pixels in Spectrum: 2136
>>>>>Begin Spectral Data<<<<<
154.91	0.34
155.289	0.28
155.669	-0.01
156.048	0.8
156.428	-0.4
156.807	0.56
157.186	-0
157.566	-0.24
157.945	0.58
158.325	-0.65
158.704	-0
159.083	-0
159.462	0.17
159.842	-0
160.221	0.48
160.6	0.3
160.979	-0.1
161.359	-0
161.738	0.44
162.117	-0.46
162.496	1.15
162.875	-0
163.254	-0.21
163.633	0.85
164.012	-0
164.391	-0.78
164.77	-0.4
165.149	0.78
165.528	-0.06
165.907	-0.95
166.286	0.37
166.665	-0
167.044	0.42
167.423	0.14
167.802	-0
168.181	-0
168.559	-0
168.938	-0
169.317	-0.05
169.696	0.18
170.074	1.32
170.453	-0.38
170.832	-0
171.21	0.54
171.589	0.07
171.968	0.05
172.346	-0
172.725	0.3
173.103	-0
173.482	0.16
173.861	-0
174.239	-0
174.617	-0.06
174.996	-0
175.374	-0
175.753	-0.74
176.131	-0
176.51	0.3
176.888	0.88
177.266	-0.07
177.645	0.26
178.023	-0.1
178.401	-0
178.779	-0.23
179.158	0.05
179.536	-0
179.914	-0.6
180.292	-0
180.67	0.38
181.048	-0
181.427	-0.48
181.805	0.24
182.183	-0
182.561	-0
182.939	-0.25
183.317	-0.06
183.695	-0.56
184.073	-0
184.451	-0
184.829	-0.08
185.206	0.67
185.584	0.15
185.962	-0
186.34	-0
186.718	1.2
187.096	-0
187.473	0.13
187.851	-0.12
188.229	-0
188.607	0.12
188.984	0.36
189.362	0.27
189.74	-0.04
190.117	0.14
190.495	0.6
190.872	-0.15
191.25	0.16
191.627	-0.23
192.005	0.67
192.382	-0.27
192.76	0.11
193.137	0.4
193.515	0.78
193.892	0.5
194.269	0.1
194.647	0.2
195.024	0.05
195.401	-0.05
195.779	0.3
196.156	0.12
196.533	-0.34
196.91	-0.23
197.288	-0
197.665	-1.45
198.042	-0.24
198.419	-0.03
198.796	0.02
199.173	0.05
199.55	-0.48
199.927	-0.32
200.304	-0.06
200.681	-0.3
201.058	0.22
201.435	0.05
201.812	-0.03
202.189	0.34
202.566	0.3
202.943	0.15
203.32	0.09
203.697	0.25
204.073	-0.15
204.45	0.3
204.827	0.25
205.204	0.02
205.58	0.01
205.957	0.44
206.334	0.46
206.71	0.27
207.087	-0.04
207.464	0.15
207.84	0.07
208.217	0.39
208.593	-0.15
208.97	-0.2
209.346	-0.1
209.723	0.01
210.099	0.42
210.476	-0.12
210.852	0.1
211.228	0.34
211.605	0.19
211.981	0.1
212.357	-0
212.733	-0
213.11	0.15
213.486	0.33
213.862	0.08
214.238	-0.03
214.614	0.21
214.991	0.32
215.367	-0.19
215.743	-0.11
216.119	-0.05
216.495	-0.1
216.871	0.33
217.247	0.33
217.623	0.16
217.999	0.48
218.375	0.08
218.751	0.93
219.127	0.57
219.502	0.04
219.878	0.34
220.254	-0.15
220.63	0.15
221.006	0.11
221.381	0.12
221.757	0.15
222.133	0.55
222.508	0.05
222.884	0.19
223.26	0.07
223.635	0.01
224.011	-0
224.386	0.12
224.762	-0.09
225.137	0.43
225.513	0.23
225.888	-0.58
226.264	0.28
226.639	0.13
227.014	0.15
227.39	0.05
227.765	0.43
228.14	0.1
228.516	0.08
228.891	-0.14
229.266	0.04
229.641	-0.18
230.017	0.07
230.392	0.04
230.767	-0.01
231.142	-0.16
231.517	0.19
231.892	0.33
232.267	0.28
232.642	0.24
233.017	0.63
233.392	0.37
233.767	0.14
234.142	-0.03
234.517	-0.05
234.892	0.51
235.267	0.34
235.641	0.49
236.016	0.09
236.391	-0.05
236.766	0.32
237.14	0.16
237.515	0.32
237.89	0.09
238.264	0.25
238.639	-0.08
239.014	0.15
239.388	-0.01
239.763	0.18
240.137	0.09
240.512	0.73
240.886	0.53
241.261	0.17
241.635	0.09
242.009	0.32
242.384	-0.06
242.758	0.82
243.132	0.25
243.507	0.19
243.881	0.49
244.255	0.69
244.629	0.13
245.004	0.67
245.378	0.1
245.752	0.34
246.126	-0.19
246.5	0.12
246.874	0.53
247.248	0.34
247.622	-0
247.996	0.18
248.37	0.08
248.744	0.27
249.118	0.1
249.492	-0
249.866	0.46
250.24	0.06
250.613	0.13
250.987	0.1
251.361	0.02
251.735	0.13
252.108	-0.04
252.482	0.14
252.856	0.34
253.229	0.03
253.603	0.13
253.977	-0
254.35	0.18
254.724	0.16
255.097	0.59
255.471	0.26
255.844	0.23
256.218	0.25
256.591	0.37
256.964	0.27
257.338	0.19
257.711	0.39
258.084	0.21
258.458	0.23
258.831	0.34
259.204	0.28
259.577	0.28
259.95	0.28
260.323	0.32
260.697	0.32
261.07	0.3
261.443	0.21
261.816	0.22
262.189	0.2
262.562	0.31
262.935	0.4
263.308	0.3
263.68	0.24
264.053	0.28
264.426	0.32
264.799	0.3
265.172	0.29
265.545	0.22
265.917	0.28
266.29	0.3
266.663	0.25
267.035	0.28
267.408	0.27
267.781	0.23
268.153	0.25
268.526	0.24
268.898	0.22
269.271	0.24
269.643	0.24
270.016	0.27
270.388	0.26
270.76	0.21
271.133	0.21
271.505	0.17
271.877	0.19
272.25	0.22
272.622	0.18
272.994	0.21
273.366	0.16
273.739	0.18
274.111	0.18
274.483	0.17
274.855	0.18
275.227	0.18
275.599	0.19
275.971	0.19
276.343	0.16
276.715	0.16
277.087	0.2
277.459	0.18
277.831	0.18
278.203	0.18
278.574	0.19
278.946	0.16
279.318	0.19
279.69	0.18
280.061	0.19
280.433	0.19
280.805	0.2
281.176	0.19
281.548	0.18
281.92	0.19
282.291	0.19
282.663	0.21
283.034	0.2
283.406	0.21
283.777	0.19
284.148	0.2
284.52	0.21
284.891	0.21
285.262	0.22
285.634	0.22
286.005	0.22
286.376	0.21
286.747	0.23
287.119	0.23
287.49	0.23
287.861	0.24
288.232	0.24
288.603	0.24
288.974	0.26
289.345	0.23
289.716	0.26
290.087	0.26
290.458	0.27
290.829	0.25
291.2	0.26
291.571	0.26
291.941	0.26
292.312	0.27
292.683	0.27
293.054	0.27
293.424	0.28
293.795	0.28
294.166	0.28
294.536	0.28
294.907	0.29
295.277	0.29
295.648	0.29
296.018	0.29
296.389	0.29
296.759	0.29
297.13	0.29
297.5	0.3
297.871	0.29
298.241	0.3
298.611	0.29
298.981	0.32
299.352	0.3
299.722	0.31
300.092	0.31
300.462	0.32
300.832	0.32
301.202	0.32
301.573	0.34
301.943	0.32
302.313	0.33
302.683	0.33
303.053	0.34
303.422	0.35
303.792	0.34
304.162	0.34
304.532	0.35
304.902	0.35
305.272	0.35
305.641	0.36
306.011	0.36
306.381	0.37
306.75	0.36
307.12	0.38
307.49	0.37
307.859	0.37
308.229	0.37
308.598	0.38
308.968	0.39
309.337	0.37
309.707	0.36
310.076	0.38
310.445	0.38
310.815	0.39
311.184	0.39
311.553	0.4
311.923	0.39
312.292	0.39
312.661	0.4
313.03	0.4
313.399	0.4
313.768	0.39
314.137	0.39
314.506	0.4
314.875	0.4
315.244	0.41
315.613	0.41
315.982	0.41
316.351	0.4
316.72	0.41
317.089	0.42
317.458	0.4
317.826	0.42
318.195	0.41
318.564	0.43
318.933	0.41
319.301	0.42
319.67	0.41
320.038	0.41
320.407	0.41
320.775	0.43
321.144	0.42
321.512	0.42
321.881	0.44
322.249	0.43
322.618	0.44
322.986	0.44
323.354	0.42
323.723	0.43
324.091	0.43
324.459	0.43
324.827	0.42
325.195	0.44
325.564	0.43
325.932	0.43
326.3	0.43
326.668	0.43
327.036	0.44
327.404	0.43
327.772	0.43
328.14	0.41
328.508	0.42
328.875	0.42
329.243	0.45
329.611	0.46
329.979	0.45
330.346	0.44
330.714	0.42
331.082	0.42
331.449	0.42
331.817	0.42
332.185	0.42
332.552	0.42
332.92	0.42
333.287	0.43
333.655	0.43
334.022	0.44
334.389	0.43
334.757	0.43
335.124	0.42
335.491	0.42
335.859	0.42
336.226	0.42
336.593	0.42
336.96	0.43
337.327	0.41
337.695	0.42
338.062	0.42
338.429	0.44
338.796	0.42
339.163	0.42
339.53	0.42
339.897	0.42
340.263	0.42
340.63	0.42
340.997	0.4
341.364	0.41
341.731	0.41
342.097	0.41
342.464	0.4
342.831	0.39
343.197	0.4
343.564	0.41
343.931	0.39
344.297	0.4
344.664	0.4
345.03	0.39
345.396	0.39
345.763	0.4
346.129	0.38
346.496	0.39
346.862	0.39
347.228	0.38
347.594	0.38
347.961	0.39
348.327	0.38
348.693	0.38
349.059	0.38
349.425	0.39
349.791	0.39
350.157	0.37
350.523	0.36
350.889	0.37
351.255	0.37
351.621	0.37
351.987	0.37
352.353	0.37
352.719	0.36
353.084	0.36
353.45	0.37
353.816	0.35
354.181	0.36
354.547	0.35
354.913	0.36
355.278	0.34
355.644	0.34
356.009	0.35
356.375	0.33
356.74	0.33
357.106	0.34
357.471	0.33
357.836	0.32
358.202	0.34
358.567	0.33
358.932	0.32
359.297	0.33
359.663	0.33
360.028	0.32
360.393	0.34
360.758	0.32
361.123	0.3
361.488	0.31
361.853	0.31
362.218	0.3
362.583	0.29
362.948	0.3
363.312	0.3
363.677	0.3
364.042	0.3
364.407	0.3
364.772	0.3
365.136	0.29
365.501	0.28
365.865	0.28
366.23	0.28
366.595	0.28
366.959	0.28
367.324	0.27
367.688	0.28
368.052	0.26
368.417	0.27
368.781	0.27
369.145	0.28
369.51	0.25
369.874	0.26
370.238	0.26
370.602	0.25
370.967	0.24
371.331	0.24
371.695	0.25
372.059	0.25
372.423	0.25
372.787	0.24
373.151	0.25
373.515	0.24
373.878	0.23
374.242	0.23
374.606	0.24
374.97	0.22
375.334	0.22
375.697	0.22
376.061	0.22
376.425	0.22
376.788	0.23
377.152	0.21
377.515	0.22
377.879	0.22
378.242	0.2
378.606	0.21
378.969	0.2
379.333	0.2
379.696	0.2
380.059	0.2
380.422	0.19
380.786	0.18
381.149	0.18
381.512	0.19
381.875	0.18
382.238	0.18
382.601	0.18
382.964	0.17
383.327	0.17
383.69	0.17
384.053	0.17
384.416	0.16
384.779	0.16
385.142	0.16
385.504	0.15
385.867	0.15
386.23	0.15
386.593	0.15
386.955	0.15
387.318	0.14
387.68	0.15
388.043	0.13
388.405	0.14
388.768	0.14
389.13	0.13
389.493	0.14
389.855	0.13
390.217	0.14
390.58	0.14
390.942	0.13
391.304	0.13
391.666	0.12
392.028	0.13
392.391	0.14
392.753	0.13
393.115	0.13
393.477	0.12
393.839	0.13
394.201	0.13
394.563	0.14
394.924	0.12
395.286	0.13
395.648	0.12
396.01	0.13
396.371	0.13
396.733	0.12
397.095	0.12
397.456	0.12
397.818	0.11
398.18	0.11
398.541	0.11
398.903	0.12
399.264	0.12
399.625	0.12
399.987	0.12
400.348	0.12
400.709	0.12
401.071	0.12
401.432	0.12
401.793	0.12
402.154	0.11
402.515	0.12
402.876	0.12
403.238	0.12
403.599	0.12
403.96	0.12
404.32	0.13
404.681	0.13
405.042	0.13
405.403	0.13
405.764	0.12
406.125	0.13
406.485	0.13
406.846	0.14
407.207	0.13
407.567	0.13
407.928	0.13
408.288	0.13
408.649	0.13
409.009	0.14
409.37	0.11
409.73	0.12
410.091	0.12
410.451	0.11
410.811	0.13
411.171	0.12
411.532	0.12
411.892	0.11
412.252	0.12
412.612	0.12
412.972	0.14
413.332	0.13
413.692	0.13
414.052	0.13
414.412	0.14
414.772	0.14
415.132	0.12
415.492	0.14
415.851	0.14
416.211	0.14
416.571	0.14
416.931	0.14
417.29	0.15
417.65	0.14
418.009	0.14
418.369	0.13
418.728	0.15
419.088	0.15
419.447	0.14
419.807	0.14
420.166	0.14
420.525	0.15
420.884	0.16
421.244	0.15
421.603	0.16
421.962	0.14
422.321	0.15
422.68	0.15
423.039	0.16
423.398	0.14
423.757	0.15
424.116	0.15
424.475	0.15
424.834	0.16
425.193	0.14
425.551	0.14
425.91	0.14
426.269	0.15
426.628	0.16
426.986	0.14
427.345	0.17
427.703	0.16
428.062	0.17
428.42	0.17
428.779	0.16
429.137	0.16
429.496	0.16
429.854	0.17
430.212	0.16
430.57	0.16
430.929	0.15
431.287	0.14
431.645	0.15
432.003	0.15
432.361	0.15
432.719	0.15
433.077	0.16
433.435	0.15
433.793	0.15
434.151	0.15
434.509	0.15
434.866	0.17
435.224	0.15
435.582	0.17
435.94	0.16
436.297	0.15
436.655	0.15
437.012	0.15
437.37	0.15
437.727	0.15
438.085	0.17
438.442	0.15
438.8	0.16
439.157	0.15
439.514	0.15
439.872	0.15
440.229	0.15
440.586	0.15
440.943	0.16
441.3	0.14
441.657	0.15
442.014	0.14
442.371	0.15
442.728	0.16
443.085	0.15
443.442	0.15
443.799	0.14
444.156	0.14
444.513	0.14
444.869	0.15
445.226	0.14
445.583	0.14
445.939	0.14
446.296	0.14
446.652	0.14
447.009	0.14
447.365	0.14
447.722	0.13
448.078	0.14
448.434	0.15
448.791	0.15
449.147	0.13
449.503	0.14
449.859	0.14
450.215	0.13
450.571	0.13
450.928	0.14
451.284	0.13
451.64	0.13
451.995	0.12
452.351	0.13
452.707	0.12
453.063	0.13
453.419	0.12
453.775	0.12
454.13	0.12
454.486	0.12
454.842	0.13
455.197	0.12
455.553	0.11
455.908	0.11
456.264	0.12
456.619	0.12
456.975	0.11
457.33	0.1
457.685	0.11
458.04	0.11
458.396	0.1
458.751	0.11
459.106	0.1
459.461	0.1
459.816	0.1
460.171	0.11
460.526	0.1
460.881	0.1
461.236	0.11
461.591	0.1
461.946	0.1
462.301	0.09
462.655	0.09
463.01	0.09
463.365	0.09
463.719	0.08
464.074	0.09
464.428	0.08
464.783	0.07
465.137	0.08
465.492	0.08
465.846	0.07
466.201	0.08
466.555	0.07
466.909	0.08
467.263	0.07
467.618	0.06
467.972	0.07
468.326	0.07
468.68	0.07
469.034	0.06
469.388	0.05
469.742	0.06
470.096	0.06
470.45	0.06
470.804	0.05
471.157	0.05
471.511	0.05
471.865	0.06
472.218	0.05
472.572	0.06
472.926	0.05
473.279	0.05
473.633	0.05
473.986	0.05
474.34	0.05
474.693	0.05
475.046	0.04
475.4	0.04
475.753	0.04
476.106	0.04
476.459	0.04
476.812	0.03
477.165	0.02
477.519	0.04
477.872	0.04
478.224	0.03
478.577	0.04
478.93	0.04
479.283	0.04
479.636	0.01
479.989	0.03
480.341	0.02
480.694	0.03
481.047	0.03
481.399	0.03
481.752	0.02
482.104	0.03
482.457	0.02
482.809	0.01
483.162	0.01
483.514	0.01
483.866	0.02
484.219	0.02
484.571	0.02
484.923	0.02
485.275	0.02
485.627	0.02
485.979	0.01
486.331	0.02
486.683	0.02
487.035	0.02
487.387	0.03
487.739	0.02
488.091	0.03
488.443	0.02
488.794	0
489.146	0
489.498	0.02
489.849	0.01
490.201	-0
490.552	0.01
490.904	0
491.255	0.02
491.607	0.03
491.958	0.01
492.309	0
492.661	0
493.012	0.01
493.363	0.01
493.714	0.01
494.065	0.02
494.416	0.02
494.767	0.01
495.118	0.01
495.469	0.02
495.82	0.01
496.171	0.02
496.522	-0
496.872	0.01
497.223	-0
497.574	-0.01
497.924	0.01
498.275	0.01
498.626	0.01
498.976	-0.02
499.327	0.01
499.677	0
500.027	-0
500.378	-0.01
500.728	-0.01
501.078	-0.01
501.428	-0.01
501.779	-0.01
502.129	-0.02
502.479	-0.01
502.829	-0
503.179	-0
503.529	-0
503.879	-0.01
504.229	0
504.578	-0.01
504.928	-0
505.278	-0.02
505.628	-0.01
505.977	-0.01
506.327	-0
506.676	-0.01
507.026	-0
507.375	-0.01
507.725	-0.02
508.074	-0.01
508.424	-0.02
508.773	-0.01
509.122	-0.03
509.471	-0.01
509.82	-0.01
510.17	-0.01
510.519	-0.01
510.868	-0.03
511.217	0
511.566	-0.01
511.915	-0.01
512.263	-0.01
512.612	-0.01
512.961	-0.02
513.31	-0.01
513.659	-0.01
514.007	-0.02
514.356	-0.01
514.704	-0.02
515.053	-0
515.401	-0.02
515.75	-0.02
516.098	-0.04
516.447	-0.02
516.795	-0.02
517.143	-0.02
517.491	-0.01
517.839	-0.05
518.188	-0.03
518.536	-0.03
518.884	-0.02
519.232	-0.03
519.58	-0.02
519.928	-0.01
520.275	-0.01
520.623	-0.01
520.971	-0.02
521.319	-0.01
521.666	-0.03
522.014	-0.02
522.362	-0.02
522.709	-0.01
523.057	-0.03
523.404	-0.02
523.752	-0.01
524.099	-0.03
524.446	-0.02
524.794	-0.05
525.141	-0.02
525.488	-0.02
525.835	-0.02
526.182	-0.03
526.529	-0.02
526.876	-0.03
527.223	-0.02
527.57	-0.02
527.917	-0.02
528.264	-0.03
528.611	-0.03
528.958	-0.03
529.304	-0.03
529.651	-0.03
529.998	-0.03
530.344	-0.03
530.691	-0.05
531.037	-0.03
531.384	-0.03
531.73	-0.03
532.076	-0.03
532.423	-0.03
532.769	-0.02
533.115	-0.01
533.461	-0.03
533.807	-0.01
534.154	-0.03
534.5	-0.02
534.846	-0.02
535.192	-0.02
535.537	-0.03
535.883	-0.03
536.229	-0.02
536.575	-0.03
536.921	-0.03
537.266	-0.03
537.612	-0.04
537.957	-0
538.303	-0.03
538.649	-0.02
538.994	-0.04
539.339	-0.04
539.685	-0.02
540.03	-0.03
540.375	-0.04
540.721	-0.04
541.066	-0.04
541.411	-0.03
541.756	-0.03
542.101	-0.02
542.446	-0.02
542.791	-0.02
543.136	-0.03
543.481	-0.03
543.825	-0.03
544.17	-0.04
544.515	-0.03
544.86	-0.03
545.204	-0.04
545.549	-0.03
545.893	-0.04
546.238	-0.04
546.582	-0.03
546.927	-0.04
547.271	-0.03
547.615	-0.04
547.96	-0.04
548.304	-0.03
548.648	-0.03
548.992	-0.04
549.336	-0.04
549.68	-0.02
550.024	-0.04
550.368	-0.03
550.712	-0.05
551.056	-0.03
551.4	-0.02
551.743	-0.04
552.087	-0.02
552.431	-0.03
552.774	-0.02
553.118	-0.03
553.462	-0.02
553.805	-0.02
554.148	-0.02
554.492	-0.02
554.835	-0.03
555.178	-0.02
555.522	-0.05
555.865	-0.03
556.208	-0.02
556.551	-0.04
556.894	-0.04
557.237	-0.02
557.58	-0.03
557.923	-0.03
558.266	-0.02
558.609	-0.03
558.952	-0.04
559.294	-0.03
559.637	-0.04
559.98	-0.05
560.322	-0.02
560.665	-0.04
561.007	-0.02
561.35	-0.04
561.692	-0.02
562.034	-0.04
562.377	-0.03
562.719	-0.03
563.061	-0.02
563.403	-0.03
563.745	-0.03
564.088	-0.02
564.43	-0.03
564.772	-0.03
565.113	-0.02
565.455	-0.03
565.797	-0.03
566.139	-0.03
566.481	-0.03
566.822	-0.03
567.164	-0.03
567.506	-0.03
567.847	-0.02
568.189	-0.02
568.53	-0.04
568.872	-0.02
569.213	-0.02
569.554	-0.03
569.895	-0.02
570.237	-0.03
570.578	-0.03
570.919	-0.03
571.26	-0.03
571.601	-0.03
571.942	-0.02
572.283	-0.03
572.624	-0.03
572.965	-0.01
573.306	-0.03
573.646	-0.02
573.987	-0.03
574.328	-0.03
574.668	-0.04
575.009	-0.04
575.349	-0.03
575.69	-0.02
576.03	-0.03
576.37	-0.04
576.711	-0.02
577.051	-0.02
577.391	-0.03
577.731	-0.03
578.072	-0.03
578.412	-0.03
578.752	-0.03
579.092	-0.03
579.431	-0.03
579.771	-0.03
580.111	-0.02
580.451	-0.02
580.791	-0.03
581.13	-0.02
581.47	-0.04
581.81	-0.02
582.149	-0.04
582.489	-0.04
582.828	-0.02
583.167	-0.03
583.507	-0.02
583.846	-0.03
584.185	-0.02
584.525	-0.03
584.864	-0.03
585.203	-0.03
585.542	-0.02
585.881	-0.02
586.22	-0.03
586.559	-0.04
586.898	-0.02
587.236	-0.03
587.575	-0.03
587.914	-0.03
588.252	-0.04
588.591	-0.04
588.93	-0.03
589.268	-0.04
589.607	-0.02
589.945	-0.03
590.283	-0.02
590.622	-0.03
590.96	-0.03
591.298	-0.03
591.636	-0.03
591.974	-0.04
592.313	-0.03
592.651	-0.03
592.989	-0.04
593.326	-0.03
593.664	-0.03
594.002	-0.04
594.34	-0.03
594.678	-0.04
595.015	-0.03
595.353	-0.02
595.691	-0.03
596.028	-0.03
596.366	-0.04
596.703	-0.04
597.04	-0.04
597.378	-0.02
597.715	-0.04
598.052	-0.04
598.389	-0.05
598.726	-0.03
599.064	-0.05
599.401	-0.04
599.738	-0.04
600.074	-0.05
600.411	-0.05
600.748	-0.03
601.085	-0.03
601.422	-0.03
601.758	-0.03
602.095	-0.02
602.432	-0.03
602.768	-0.03
603.105	-0.02
603.441	-0.03
603.777	-0.02
604.114	-0.03
604.45	-0.03
604.786	-0.02
605.122	-0.03
605.459	-0.03
605.795	-0.03
606.131	-0.02
606.467	-0.03
606.803	-0.03
607.139	-0.03
607.474	-0.03
607.81	-0.03
608.146	-0.03
608.482	-0.03
608.817	-0.04
609.153	-0.03
609.488	-0.04
609.824	-0.04
610.159	-0.04
610.495	-0.04
610.83	-0.03
611.165	-0.03
611.5	-0.04
611.836	-0.03
612.171	-0.03
612.506	-0.04
612.841	-0.03
613.176	-0.04
613.511	-0.05
613.845	-0.05
614.18	-0.03
614.515	-0.05
614.85	-0.04
615.184	-0.04
615.519	-0.03
615.854	-0.04
616.188	-0.04
616.523	-0.04
616.857	-0.03
617.191	-0.03
617.526	-0.02
617.86	-0.03
618.194	-0.04
618.528	-0.03
618.862	-0.05
619.196	-0.03
619.53	-0.03
619.864	-0.04
620.198	-0.03
620.532	-0.03
620.866	-0.04
621.2	-0.04
621.533	-0.03
621.867	-0.04
622.201	-0.02
622.534	-0.03
622.868	-0.04
623.201	-0.03
623.534	-0.03
623.868	-0.02
624.201	-0.04
624.534	-0.03
624.868	-0.03
625.201	-0.02
625.534	-0.03
625.867	-0.03
626.2	-0.04
626.533	-0.04
626.865	-0.05
627.198	-0.03
627.531	-0.06
627.864	-0.04
628.196	-0.04
628.529	-0.04
628.862	-0.04
629.194	-0.02
629.527	-0.04
629.859	-0.05
630.191	-0.05
630.524	-0.04
630.856	-0.05
631.188	-0.04
631.52	-0.04
631.852	-0.04
632.184	-0.04
632.516	-0.04
632.848	-0.05
633.18	-0.05
633.512	-0.05
633.844	-0.05
634.175	-0.05
634.507	-0.04
634.839	-0.06
635.17	-0.05
635.502	-0.03
635.833	-0.04
636.165	-0.04
636.496	-0.03
636.827	-0.04
637.159	-0.04
637.49	-0.03
637.821	-0.05
638.152	-0.04
638.483	-0.03
638.814	-0.05
639.145	-0.05
639.476	-0.05
639.807	-0.04
640.137	-0.04
640.468	-0.04
640.799	-0.05
641.129	-0.05
641.46	-0.05
641.791	-0.06
642.121	-0.07
642.451	-0.05
642.782	-0.05
643.112	-0.04
643.442	-0.05
643.773	-0.05
644.103	-0.05
644.433	-0.04
644.763	-0.03
645.093	-0.04
645.423	-0.04
645.753	-0.04
646.082	-0.05
646.412	-0.04
646.742	-0.05
647.072	-0.05
647.401	-0.04
647.731	-0.04
648.06	-0.03
648.39	-0.04
648.719	-0.04
649.048	-0.05
649.378	-0.04
649.707	-0.04
650.036	-0.04
650.365	-0.05
650.694	-0.04
651.023	-0.04
651.352	-0.04
651.681	-0.04
652.01	-0.04
652.339	-0.02
652.668	-0.03
652.996	-0.03
653.325	-0.04
653.654	-0.05
653.982	-0.04
654.311	-0.04
654.639	-0.04
654.967	-0.03
655.296	-0.05
655.624	-0.06
655.952	-0.07
656.28	-0.06
656.609	-0.05
656.937	-0.04
657.265	-0.03
657.593	-0.02
657.92	-0.01
658.248	-0.02
658.576	-0.02
658.904	-0.02
659.231	-0.04
659.559	-0.04
659.887	-0.04
660.214	-0.03
660.542	-0.03
660.869	-0.04
661.196	-0.04
661.524	-0.05
661.851	-0.04
662.178	-0.03
662.505	-0.05
662.832	-0.04
663.159	-0.04
663.486	-0.04
663.813	-0.05
664.14	-0.05
664.467	-0.03
664.794	-0.03
665.12	-0.03
665.447	-0.04
665.774	-0.02
666.1	-0.04
666.427	-0.06
666.753	-0.04
667.079	-0.05
667.406	-0.03
667.732	-0.05
668.058	-0.03
668.384	-0.04
668.71	-0.03
669.036	-0.04
669.362	-0.03
669.688	-0.04
670.014	-0.05
670.34	-0.04
670.666	-0.05
670.991	-0.04
671.317	-0.05
671.643	-0.05
671.968	-0.05
672.294	-0.06
672.619	-0.06
672.945	-0.06
673.27	-0.06
673.595	-0.04
673.92	-0.05
674.246	-0.06
674.571	-0.04
674.896	-0.06
675.221	-0.05
675.546	-0.05
675.87	-0.06
676.195	-0.06
676.52	-0.05
676.845	-0.05
677.169	-0.04
677.494	-0.04
677.819	-0.04
678.143	-0.03
678.468	-0.04
678.792	-0.04
679.116	-0.04
679.44	-0.03
679.765	-0.03
680.089	-0.05
680.413	-0.04
680.737	-0.04
681.061	-0.05
681.385	-0.04
681.709	-0.03
682.033	-0.05
682.356	-0.04
682.68	-0.04
683.004	-0.05
683.327	-0.04
683.651	-0.05
683.974	-0.05
684.298	-0.06
684.621	-0.05
684.944	-0.05
685.268	-0.06
685.591	-0.05
685.914	-0.05
686.237	-0.05
686.56	-0.04
686.883	-0.05
687.206	-0.04
687.529	-0.05
687.852	-0.05
688.175	-0.04
688.497	-0.04
688.82	-0.06
689.142	-0.05
689.465	-0.07
689.787	-0.05
690.11	-0.06
690.432	-0.06
690.755	-0.07
691.077	-0.06
691.399	-0.07
691.721	-0.06
692.043	-0.06
692.365	-0.05
692.687	-0.05
693.009	-0.06
693.331	-0.05
693.653	-0.05
693.974	-0.06
694.296	-0.06
694.618	-0.06
694.939	-0.06
695.261	-0.06
695.582	-0.05
695.904	-0.06
696.225	-0.07
696.546	-0.05
696.868	-0.05
697.189	-0.06
697.51	-0.05
697.831	-0.06
698.152	-0.04
698.473	-0.05
698.794	-0.04
699.114	-0.05
699.435	-0.06
699.756	-0.05
700.077	-0.07
700.397	-0.05
700.718	-0.06
701.038	-0.04
701.359	-0.05
701.679	-0.05
701.999	-0.04
702.32	-0.06
702.64	-0.06
702.96	-0.05
703.28	-0.05
703.6	-0.05
703.92	-0.05
704.24	-0.06
704.56	-0.06
704.879	-0.06
705.199	-0.06
705.519	-0.06
705.838	-0.07
706.158	-0.06
706.478	-0.06
706.797	-0.05
707.116	-0.05
707.436	-0.05
707.755	-0.05
708.074	-0.05
708.393	-0.04
708.712	-0.04
709.031	-0.04
709.35	-0.04
709.669	-0.04
709.988	-0.04
710.307	-0.05
710.626	-0.04
710.944	-0.04
711.263	-0.05
711.582	-0.06
711.9	-0.06
712.219	-0.06
712.537	-0.06
712.855	-0.06
713.174	-0.04
713.492	-0.05
713.81	-0.06
714.128	-0.05
714.446	-0.05
714.764	-0.06
715.082	-0.05
715.4	-0.05
715.718	-0.04
716.035	-0.04
716.353	-0.03
716.671	-0.03
716.988	-0.05
717.306	-0.05
717.623	-0.04
717.941	-0.04
718.258	-0.06
718.575	-0.05
718.893	-0.05
719.21	-0.05
719.527	-0.05
719.844	-0.07
720.161	-0.05
720.478	-0.06
720.795	-0.07
721.112	-0.07
721.428	-0.06
721.745	-0.05
722.062	-0.06
722.378	-0.07
722.695	-0.05
723.011	-0.07
723.328	-0.05
723.644	-0.05
723.96	-0.05
724.276	-0.05
724.593	-0.07
724.909	-0.05
725.225	-0.07
725.541	-0.06
725.857	-0.06
726.173	-0.06
726.488	-0.07
726.804	-0.06
727.12	-0.06
727.435	-0.05
727.751	-0.06
728.067	-0.06
728.382	-0.05
728.697	-0.05
729.013	-0.05
729.328	-0.05
729.643	-0.05
729.958	-0.05
730.273	-0.05
730.588	-0.05
730.903	-0.04
731.218	-0.05
731.533	-0.04
731.848	-0.03
732.163	-0.04
732.477	-0.04
732.792	-0.03
733.107	-0.03
733.421	-0.04
733.736	-0.05
734.05	-0.05
734.364	-0.02
734.678	-0.04
734.993	-0.03
735.307	-0.04
735.621	-0.04
735.935	-0.03
736.249	-0.03
736.563	-0.02
736.877	-0.03
737.19	-0.03
737.504	-0.03
737.818	-0.04
738.131	-0.03
738.445	-0.03
738.758	-0.03
739.072	-0.04
739.385	-0.02
739.698	-0.03
740.012	-0.03
740.325	-0.03
740.638	-0.03
740.951	-0.03
741.264	-0.04
741.577	-0.04
741.89	-0.06
742.203	-0.04
742.515	-0.05
742.828	-0.04
743.141	-0.05
743.453	-0.04
743.766	-0.04
744.078	-0.04
744.391	-0.06
744.703	-0.05
745.015	-0.04
745.327	-0.03
745.639	-0.04
745.952	-0.04
746.264	-0.04
746.575	-0.04
746.887	-0.04
747.199	-0.05
747.511	-0.04
747.823	-0.06
748.134	-0.05
748.446	-0.06
748.757	-0.06
749.069	-0.05
749.38	-0.06
749.692	-0.06
750.003	-0.05
750.314	-0.05
750.625	-0.05
750.936	-0.04
751.248	-0.04
751.559	-0.05
751.869	-0.05
752.18	-0.03
752.491	-0.06
752.802	-0.06
753.112	-0.06
753.423	-0.05
753.734	-0.04
754.044	-0.06
754.355	-0.04
754.665	-0.05
754.975	-0.04
755.285	-0.05
755.596	-0.03
755.906	-0.03
756.216	-0.03
756.526	-0.02
756.836	-0.02
757.146	-0.01
757.455	-0.01
757.765	-0.01
758.075	-0.02
758.385	-0
758.694	-0
759.004	-0
759.313	-0
759.622	-0
759.932	-0
760.241	-0.01
760.55	-0
760.859	-0.01
761.168	-0.02
761.477	-0.03
761.786	-0.03
762.095	-0.05
762.404	-0.05
762.713	-0.04
763.021	-0.04
763.33	-0.03
763.639	-0.02
763.947	-0.03
764.256	-0.03
764.564	-0.03
764.872	-0.01
765.181	-0.01
765.489	-0.01
765.797	-0.01
766.105	-0.02
766.413	-0.03
766.721	-0.03
767.029	-0.04
767.337	-0.02
767.644	-0.04
767.952	-0.03
768.26	-0.02
768.567	-0.03
768.875	-0.02
769.182	-0.03
769.49	-0.04
769.797	-0.04
770.104	-0.03
770.411	-0.01
770.718	-0.02
771.026	-0.03
771.333	-0.02
771.639	-0.02
771.946	-0.02
772.253	-0.04
772.56	-0.03
772.867	-0.04
773.173	-0.03
773.48	-0.03
773.786	-0.06
774.093	-0.04
774.399	-0.04
774.705	-0.05
775.012	-0.05
775.318	-0.01
775.624	-0.05
775.93	-0.03
776.236	-0.04
776.542	-0.03
776.848	-0.04
777.154	-0.02
777.459	-0.04
777.765	-0.03
778.071	-0.03
778.376	-0.04
778.682	-0.03
778.987	-0.04
779.292	-0.04
779.598	-0.05
779.903	-0.02
780.208	-0.02
780.513	-0.03
780.818	-0.03
781.123	-0.02
781.428	-0.03
781.733	-0.02
782.038	-0.01
782.343	-0.02
782.647	-0.01
782.952	-0.01
783.256	-0.01
783.561	-0.01
783.865	-0.01
784.17	-0.02
784.474	-0
784.778	-0.01
785.082	-0.01
785.386	-0.01
785.69	-0.01
785.994	-0.02
786.298	-0.01
786.602	0.02
786.906	-0.02
787.209	-0.01
787.513	-0
787.817	0.01
788.12	0
788.424	0
788.727	-0.01
789.03	0
789.333	0.02
789.637	0
789.94	0.02
790.243	-0
790.546	0.03
790.849	0.03
791.152	0.02
791.454	-0.01
791.757	0.01
792.06	-0
792.362	0.01
792.665	-0.03
792.967	0
793.27	0.03
793.572	0.02
793.874	0.01
794.177	0.03
794.479	0.02
794.781	0.02
795.083	0.04
795.385	0.03
795.687	0.03
795.989	0.02
796.29	0.01
796.592	0.02
796.894	0.01
797.195	0.03
797.497	0.01
797.798	0.01
798.1	0.02
798.401	0.01
798.702	-0.01
799.003	0.01
799.304	0.04
799.605	0.02
799.906	0.03
800.207	0.02
800.508	0.04
800.809	0.05
801.11	0.06
801.41	0.05
801.711	0.01
802.011	0.07
802.312	0.06
802.612	0.06
802.913	0.04
803.213	0.06
803.513	0.05
803.813	-0.01
804.113	0.04
804.413	0.06
804.713	0.03
805.013	0.03
805.313	0.05
805.613	0.05
805.912	0.05
806.212	0.06
806.511	0
806.811	0.03
807.11	0.04
807.41	0.06
807.709	0.04
808.008	0.03
808.307	0
808.606	0.08
808.905	0.02
809.204	0.1
809.503	0.07
809.802	0.08
810.101	0.05
810.399	0.06
810.698	0.02
810.997	0.04
811.295	-0.03
811.593	0.02
811.892	0.04
812.19	0.05
812.488	0.05
812.786	0.07
813.084	0.05
813.383	0
813.68	0.05
813.978	0.08
814.276	0.11
814.574	0.11
814.872	0.1
815.169	0.06
815.467	0.08
815.764	0.05
816.062	0.01
816.359	0.04
816.656	0.04
816.954	-0.02
817.251	0.03
817.548	0.06
817.845	0.06
818.142	0.04
818.439	0.03
818.735	0.02
819.032	0.09
819.329	0.04
819.626	0.02
819.922	0.02
820.219	0.06
820.515	0.12
820.811	0.11
821.108	0.09
821.404	0.06
821.7	0.04
821.996	0
822.292	0.06
822.588	-0.05
822.884	0.06
823.18	0.04
823.475	0.08
823.771	0.08
824.067	0.12
824.362	0.07
824.658	0.03
824.953	-0.01
825.249	0.13
825.544	0.07
825.839	0.09
826.134	0.06
826.429	0.1
826.724	0.1
827.019	0.02
827.314	-0.02
827.609	-0.01
827.904	0.01
828.198	0.07
828.493	0.09
828.787	0.09
829.082	0.08
829.376	0.16
829.671	0.02
829.965	0.09
830.259	0.02
830.553	-0.07
830.847	0.09
831.141	-0.01
831.435	0.01
831.729	0.05
832.023	0.02
832.317	0.1
832.61	-0.05
832.904	0.04
833.197	0.08
833.491	0.04
833.784	0.02
834.077	0.01
834.371	0.09
834.664	0.06
834.957	0.02
835.25	0.01
835.543	0.08
835.836	0.22
836.129	-0.03
836.421	-0.02
836.714	-0.02
837.007	-0
837.299	0.22
837.592	0.06
837.884	-0.04
838.177	-0.04
838.469	0.02
838.761	-0.02
839.053	0.15
839.345	0.29
839.637	-0.02
839.929	0
840.221	0.09
840.513	0.06
840.805	0.09
841.096	0.07
841.388	0.11
841.68	-0.12
841.971	0.03
842.262	-0.02
842.554	0.13
842.845	-0.04
843.136	-0.06
843.427	0.02
843.718	0.11
844.009	0.04
844.3	-0.35
844.591	-0.04
844.882	0.02
845.173	0.03
845.463	-0.02
845.754	-0.25
846.044	-0.01
846.335	0.17
846.625	0.2
846.915	-0.26
847.206	0.31
847.496	-0.09
847.786	-0.19
848.076	-0.4
848.366	0.12
848.656	-0.16
848.945	-0.07
849.235	0.22
849.525	-0.21
849.814	0.4
850.104	0.03
850.393	-0.33
850.683	-0.3
850.972	-0.05
851.261	-0.12
851.551	-0.05
851.84	0.04
852.129	-0.13
852.418	0.03
852.707	-0.1
852.995	-0.02
853.284	0.21
853.573	-0.24
853.862	-0.32
854.15	0.09
854.439	-0.22
854.727	-0.66
855.015	-0.2
855.304	-0.35
855.592	-0.25
855.88	-0.03
856.168	-0.24
856.456	-0.23
856.744	-0
857.032	-0.18
857.32	-0.03
857.607	-0
857.895	-0.11
858.183	-0.46
858.47	0.11
858.757	0.65
859.045	-0
859.332	-0
859.619	0.35
859.907	0.45
860.194	-0.2
860.481	-0
860.768	-0
861.054	-0
861.341	-0.07
861.628	-0
861.915	-0.73
862.201	0.48
862.488	-0.7
862.774	-0
863.061	0.26
863.347	-0.03
863.633	0.06
863.919	0.48
864.205	-0
864.491	-0.42
864.777	-0.22
865.063	-0.35
865.349	0.6
865.635	-0
865.92	0.57
866.206	-0.18
866.492	-0
866.777	-0.58
867.062	-0.57
867.348	-0
867.633	-0.3
867.918	0.78
868.203	-0
868.488	-0
868.773	-0.78
869.058	0.44
869.343	-0
869.628	-0.41
869.912	-0
870.197	-0
870.482	-0
870.766	-1.11
871.05	-0
871.335	-0
871.619	-0
871.903	0.05
872.187	-0
872.471	-0
872.755	-0.7
873.039	0.17
873.323	0.27
873.607	-0
873.89	-0.34
874.174	1.28
874.458	0.19
874.741	-0
875.024	-0
875.308	-0
875.591	0.92
875.874	-0
876.157	-0.68
876.44	-0
876.723	0.06
877.006	-0
877.289	-0.52
877.572	-0
877.854	0.27
878.137	-0.22
878.42	0.93
878.702	0.08
878.984	0.15
879.267	0.21
879.549	-0
879.831	-0.09
880.113	-0.22
880.395	-0
880.677	-0.95
880.959	-0
