Data from c2t_JH05_50uM_Absorbance_11-14-20-053.txt Node
Date: Thu Dec 21 11:14:20 GMT 2017
User: egn-admin
Spectrometer: OFX00224
Trigger mode: 0
Integration Time (sec): 5.000000E-2
Scans to average: 1
Nonlinearity correction enabled: false
Boxcar width: 0
Storing dark spectrum: false
XAxis mode: Wavelengths
Number of Pixels in Spectrum: 2136
>>>>>Begin Spectral Data<<<<<
154.91	-0
155.289	-0.25
155.669	0.39
156.048	-0
156.428	-0.3
156.807	0.18
157.186	-0.45
157.566	-0.22
157.945	-0
158.325	-0.48
158.704	-0
159.083	-0.85
159.462	-0.02
159.842	-0
160.221	0.48
160.6	-0
160.979	-0.35
161.359	-0
161.738	-0.37
162.117	0.37
162.496	0.85
162.875	-0.75
163.254	-0.08
163.633	-0
164.012	-0
164.391	-1.26
164.77	-0
165.149	-0.03
165.528	0.15
165.907	-0
166.286	-0.06
166.665	1.58
167.044	0.07
167.423	-0.13
167.802	-0
168.181	-0
168.559	-0
168.938	-0.23
169.317	-0
169.696	-0.02
170.074	-0
170.453	-0.18
170.832	-0.48
171.21	-0.23
171.589	-0
171.968	-0.32
172.346	-0
172.725	0.3
173.103	-0
173.482	0.27
173.861	-0
174.239	-0.43
174.617	0.37
174.996	-0.3
175.374	-1.04
175.753	0.3
176.131	-0.2
176.51	0.23
176.888	-0
177.266	0.28
177.645	-0.1
178.023	0.9
178.401	-0
178.779	-0
179.158	0.4
179.536	0.22
179.914	-0.62
180.292	-0.34
180.67	0.51
181.048	-0
181.427	-0.1
181.805	0.07
182.183	-0
182.561	-0
182.939	-0.19
183.317	-0
183.695	-0
184.073	0.4
184.451	-0.22
184.829	-0.04
185.206	-0.25
185.584	-0
185.962	-0
186.34	-0.2
186.718	0.12
187.096	-0
187.473	0.68
187.851	-0.22
188.229	-0
188.607	0.08
188.984	0.19
189.362	-0.08
189.74	0.07
190.117	0.03
190.495	-0.1
190.872	0.45
191.25	0.26
191.627	-0.08
192.005	-0.02
192.382	0.34
192.76	0.07
193.137	-0.38
193.515	0.34
193.892	0.5
194.269	-0.33
194.647	0.16
195.024	-0.28
195.401	-0.08
195.779	0.08
196.156	-0
196.533	-0.16
196.91	-0.02
197.288	-0.43
197.665	-1.34
198.042	0.04
198.419	-0
198.796	0.43
199.173	-0
199.55	-0.44
199.927	-0.27
200.304	-0.07
200.681	-0.45
201.058	0.19
201.435	-0
201.812	-0.16
202.189	0.05
202.566	0.18
202.943	0.64
203.32	0.06
203.697	0.25
204.073	-0
204.45	-0.05
204.827	-0.35
205.204	-0
205.58	-0.08
205.957	0.12
206.334	0.49
206.71	-0.09
207.087	0.05
207.464	0.03
207.84	0.03
208.217	-0.05
208.593	-0.25
208.97	-0.07
209.346	-0.08
209.723	0.16
210.099	-0
210.476	-0.35
210.852	0.86
211.228	0.16
211.605	0.08
211.981	0.12
212.357	0.16
212.733	-0.04
213.11	-0.01
213.486	0.03
213.862	-0
214.238	0.02
214.614	-0.24
214.991	0.09
215.367	-0.03
215.743	-0.15
216.119	0.04
216.495	0.27
216.871	0.01
217.247	0.07
217.623	0.06
217.999	-0.36
218.375	0.13
218.751	0.15
219.127	0.31
219.502	0.1
219.878	-0.07
220.254	-0.11
220.63	0.16
221.006	-0
221.381	0.08
221.757	0.04
222.133	0.04
222.508	0.14
222.884	-0.02
223.26	-0.07
223.635	-0.06
224.011	-0
224.386	0.1
224.762	-0.21
225.137	0.13
225.513	0.1
225.888	-0.28
226.264	0.03
226.639	0.13
227.014	0.22
227.39	0.05
227.765	0.29
228.14	0.33
228.516	0.12
228.891	-0.02
229.266	1.04
229.641	-0.38
230.017	0.09
230.392	-0.11
230.767	-0.09
231.142	-0.22
231.517	0.4
231.892	0.3
232.267	0.09
232.642	0.1
233.017	0.05
233.392	0.34
233.767	0.08
234.142	-0.05
234.517	0.22
234.892	0.63
235.267	0.08
235.641	0.19
236.016	0.07
236.391	-0.13
236.766	0.15
237.14	0.21
237.515	0.12
237.89	0.36
238.264	0.28
238.639	0.1
239.014	-0.07
239.388	0.17
239.763	0.04
240.137	0.11
240.512	0.26
240.886	0.31
241.261	-0.1
241.635	0.08
242.009	0.11
242.384	-0.13
242.758	0.25
243.132	-0.08
243.507	-0.04
243.881	0.21
244.255	0.2
244.629	0.14
245.004	0.27
245.378	0.09
245.752	0.34
246.126	-0.13
246.5	0.18
246.874	0.01
247.248	0.55
247.622	1.02
247.996	0.15
248.37	0.31
248.744	0.18
249.118	0.13
249.492	-0
249.866	0.28
250.24	0.09
250.613	0.18
250.987	0.26
251.361	-0.07
251.735	0.14
252.108	0.03
252.482	0.08
252.856	0.24
253.229	0.18
253.603	0.13
253.977	-0.02
254.35	0.12
254.724	0.23
255.097	0.36
255.471	0.25
255.844	0.05
256.218	0.14
256.591	0.27
256.964	0.14
257.338	0.2
257.711	0.27
258.084	0.4
258.458	0.24
258.831	0.35
259.204	0.27
259.577	0.38
259.95	0.18
260.323	0.36
260.697	0.23
261.07	0.21
261.443	0.35
261.816	0.28
262.189	0.28
262.562	0.29
262.935	0.37
263.308	0.26
263.68	0.33
264.053	0.23
264.426	0.31
264.799	0.25
265.172	0.28
265.545	0.27
265.917	0.33
266.29	0.28
266.663	0.28
267.035	0.25
267.408	0.25
267.781	0.26
268.153	0.23
268.526	0.24
268.898	0.26
269.271	0.22
269.643	0.2
270.016	0.24
270.388	0.22
270.76	0.21
271.133	0.21
271.505	0.19
271.877	0.18
272.25	0.21
272.622	0.18
272.994	0.19
273.366	0.16
273.739	0.21
274.111	0.19
274.483	0.19
274.855	0.18
275.227	0.19
275.599	0.19
275.971	0.16
276.343	0.18
276.715	0.17
277.087	0.18
277.459	0.18
277.831	0.18
278.203	0.18
278.574	0.19
278.946	0.16
279.318	0.18
279.69	0.18
280.061	0.19
280.433	0.19
280.805	0.19
281.176	0.19
281.548	0.2
281.92	0.19
282.291	0.18
282.663	0.2
283.034	0.2
283.406	0.2
283.777	0.19
284.148	0.19
284.52	0.22
284.891	0.21
285.262	0.22
285.634	0.23
286.005	0.22
286.376	0.22
286.747	0.23
287.119	0.24
287.49	0.23
287.861	0.23
288.232	0.24
288.603	0.24
288.974	0.25
289.345	0.24
289.716	0.26
290.087	0.27
290.458	0.26
290.829	0.25
291.2	0.27
291.571	0.27
291.941	0.27
292.312	0.27
292.683	0.26
293.054	0.27
293.424	0.28
293.795	0.27
294.166	0.29
294.536	0.28
294.907	0.3
295.277	0.3
295.648	0.29
296.018	0.29
296.389	0.29
296.759	0.29
297.13	0.3
297.5	0.3
297.871	0.3
298.241	0.3
298.611	0.3
298.981	0.31
299.352	0.3
299.722	0.31
300.092	0.31
300.462	0.32
300.832	0.33
301.202	0.31
301.573	0.33
301.943	0.32
302.313	0.34
302.683	0.33
303.053	0.32
303.422	0.35
303.792	0.34
304.162	0.35
304.532	0.35
304.902	0.35
305.272	0.35
305.641	0.36
306.011	0.37
306.381	0.37
306.75	0.36
307.12	0.36
307.49	0.37
307.859	0.37
308.229	0.38
308.598	0.37
308.968	0.37
309.337	0.38
309.707	0.36
310.076	0.38
310.445	0.38
310.815	0.38
311.184	0.38
311.553	0.39
311.923	0.39
312.292	0.38
312.661	0.4
313.03	0.4
313.399	0.39
313.768	0.39
314.137	0.4
314.506	0.4
314.875	0.41
315.244	0.4
315.613	0.41
315.982	0.41
316.351	0.4
316.72	0.41
317.089	0.42
317.458	0.4
317.826	0.41
318.195	0.42
318.564	0.41
318.933	0.4
319.301	0.41
319.67	0.41
320.038	0.41
320.407	0.4
320.775	0.4
321.144	0.41
321.512	0.42
321.881	0.43
322.249	0.42
322.618	0.41
322.986	0.42
323.354	0.4
323.723	0.41
324.091	0.42
324.459	0.41
324.827	0.41
325.195	0.42
325.564	0.4
325.932	0.42
326.3	0.42
326.668	0.41
327.036	0.41
327.404	0.41
327.772	0.4
328.14	0.41
328.508	0.4
328.875	0.41
329.243	0.43
329.611	0.42
329.979	0.43
330.346	0.42
330.714	0.39
331.082	0.4
331.449	0.39
331.817	0.4
332.185	0.4
332.552	0.4
332.92	0.39
333.287	0.41
333.655	0.4
334.022	0.41
334.389	0.4
334.757	0.4
335.124	0.39
335.491	0.39
335.859	0.4
336.226	0.39
336.593	0.39
336.96	0.39
337.327	0.39
337.695	0.39
338.062	0.38
338.429	0.39
338.796	0.38
339.163	0.39
339.53	0.38
339.897	0.38
340.263	0.39
340.63	0.38
340.997	0.36
341.364	0.38
341.731	0.37
342.097	0.37
342.464	0.37
342.831	0.36
343.197	0.36
343.564	0.36
343.931	0.35
344.297	0.36
344.664	0.35
345.03	0.34
345.396	0.36
345.763	0.35
346.129	0.34
346.496	0.35
346.862	0.34
347.228	0.35
347.594	0.32
347.961	0.34
348.327	0.35
348.693	0.33
349.059	0.34
349.425	0.34
349.791	0.33
350.157	0.33
350.523	0.32
350.889	0.33
351.255	0.33
351.621	0.32
351.987	0.32
352.353	0.33
352.719	0.32
353.084	0.32
353.45	0.31
353.816	0.32
354.181	0.31
354.547	0.31
354.913	0.31
355.278	0.3
355.644	0.3
356.009	0.31
356.375	0.29
356.74	0.29
357.106	0.29
357.471	0.28
357.836	0.28
358.202	0.28
358.567	0.28
358.932	0.28
359.297	0.28
359.663	0.28
360.028	0.27
360.393	0.27
360.758	0.26
361.123	0.26
361.488	0.26
361.853	0.26
362.218	0.26
362.583	0.26
362.948	0.25
363.312	0.25
363.677	0.26
364.042	0.25
364.407	0.25
364.772	0.25
365.136	0.24
365.501	0.25
365.865	0.25
366.23	0.23
366.595	0.24
366.959	0.23
367.324	0.24
367.688	0.24
368.052	0.22
368.417	0.22
368.781	0.23
369.145	0.22
369.51	0.21
369.874	0.22
370.238	0.22
370.602	0.21
370.967	0.19
371.331	0.22
371.695	0.22
372.059	0.2
372.423	0.2
372.787	0.22
373.151	0.2
373.515	0.2
373.878	0.18
374.242	0.19
374.606	0.18
374.97	0.19
375.334	0.19
375.697	0.19
376.061	0.18
376.425	0.2
376.788	0.19
377.152	0.17
377.515	0.18
377.879	0.18
378.242	0.17
378.606	0.18
378.969	0.18
379.333	0.17
379.696	0.16
380.059	0.17
380.422	0.16
380.786	0.16
381.149	0.16
381.512	0.15
381.875	0.15
382.238	0.15
382.601	0.15
382.964	0.14
383.327	0.14
383.69	0.14
384.053	0.14
384.416	0.13
384.779	0.13
385.142	0.14
385.504	0.14
385.867	0.12
386.23	0.12
386.593	0.13
386.955	0.14
387.318	0.13
387.68	0.13
388.043	0.11
388.405	0.12
388.768	0.12
389.13	0.11
389.493	0.12
389.855	0.12
390.217	0.12
390.58	0.12
390.942	0.11
391.304	0.11
391.666	0.1
392.028	0.12
392.391	0.11
392.753	0.11
393.115	0.11
393.477	0.1
393.839	0.12
394.201	0.11
394.563	0.13
394.924	0.12
395.286	0.11
395.648	0.11
396.01	0.11
396.371	0.1
396.733	0.12
397.095	0.11
397.456	0.12
397.818	0.1
398.18	0.11
398.541	0.1
398.903	0.1
399.264	0.1
399.625	0.1
399.987	0.1
400.348	0.11
400.709	0.12
401.071	0.11
401.432	0.12
401.793	0.12
402.154	0.1
402.515	0.11
402.876	0.11
403.238	0.12
403.599	0.11
403.96	0.11
404.32	0.11
404.681	0.13
405.042	0.12
405.403	0.11
405.764	0.11
406.125	0.13
406.485	0.12
406.846	0.13
407.207	0.12
407.567	0.12
407.928	0.13
408.288	0.13
408.649	0.13
409.009	0.12
409.37	0.12
409.73	0.12
410.091	0.12
410.451	0.12
410.811	0.12
411.171	0.11
411.532	0.12
411.892	0.12
412.252	0.12
412.612	0.11
412.972	0.12
413.332	0.12
413.692	0.12
414.052	0.13
414.412	0.14
414.772	0.15
415.132	0.14
415.492	0.14
415.851	0.14
416.211	0.13
416.571	0.14
416.931	0.14
417.29	0.15
417.65	0.14
418.009	0.15
418.369	0.14
418.728	0.14
419.088	0.14
419.447	0.14
419.807	0.13
420.166	0.13
420.525	0.16
420.884	0.15
421.244	0.16
421.603	0.14
421.962	0.13
422.321	0.16
422.68	0.16
423.039	0.15
423.398	0.14
423.757	0.15
424.116	0.14
424.475	0.16
424.834	0.15
425.193	0.16
425.551	0.13
425.91	0.15
426.269	0.15
426.628	0.17
426.986	0.14
427.345	0.15
427.703	0.16
428.062	0.16
428.42	0.16
428.779	0.16
429.137	0.16
429.496	0.16
429.854	0.16
430.212	0.16
430.57	0.16
430.929	0.15
431.287	0.15
431.645	0.15
432.003	0.15
432.361	0.16
432.719	0.16
433.077	0.15
433.435	0.16
433.793	0.16
434.151	0.15
434.509	0.14
434.866	0.16
435.224	0.16
435.582	0.16
435.94	0.15
436.297	0.16
436.655	0.14
437.012	0.16
437.37	0.15
437.727	0.15
438.085	0.16
438.442	0.14
438.8	0.15
439.157	0.14
439.514	0.16
439.872	0.15
440.229	0.16
440.586	0.16
440.943	0.16
441.3	0.12
441.657	0.16
442.014	0.14
442.371	0.15
442.728	0.15
443.085	0.15
443.442	0.15
443.799	0.13
444.156	0.14
444.513	0.15
444.869	0.15
445.226	0.15
445.583	0.16
445.939	0.15
446.296	0.16
446.652	0.15
447.009	0.15
447.365	0.14
447.722	0.13
448.078	0.14
448.434	0.15
448.791	0.14
449.147	0.12
449.503	0.14
449.859	0.13
450.215	0.12
450.571	0.13
450.928	0.14
451.284	0.13
451.64	0.13
451.995	0.14
452.351	0.14
452.707	0.12
453.063	0.14
453.419	0.12
453.775	0.11
454.13	0.12
454.486	0.12
454.842	0.13
455.197	0.11
455.553	0.11
455.908	0.12
456.264	0.11
456.619	0.11
456.975	0.12
457.33	0.11
457.685	0.11
458.04	0.11
458.396	0.1
458.751	0.11
459.106	0.12
459.461	0.11
459.816	0.1
460.171	0.12
460.526	0.11
460.881	0.11
461.236	0.1
461.591	0.1
461.946	0.1
462.301	0.09
462.655	0.1
463.01	0.09
463.365	0.09
463.719	0.09
464.074	0.08
464.428	0.08
464.783	0.08
465.137	0.08
465.492	0.08
465.846	0.08
466.201	0.07
466.555	0.08
466.909	0.08
467.263	0.07
467.618	0.07
467.972	0.06
468.326	0.06
468.68	0.07
469.034	0.06
469.388	0.06
469.742	0.07
470.096	0.07
470.45	0.06
470.804	0.05
471.157	0.06
471.511	0.05
471.865	0.06
472.218	0.05
472.572	0.06
472.926	0.04
473.279	0.05
473.633	0.05
473.986	0.05
474.34	0.05
474.693	0.04
475.046	0.04
475.4	0.04
475.753	0.04
476.106	0.03
476.459	0.03
476.812	0.04
477.165	0.04
477.519	0.04
477.872	0.03
478.224	0.04
478.577	0.04
478.93	0.04
479.283	0.05
479.636	0.03
479.989	0.03
480.341	0.01
480.694	0.04
481.047	0.03
481.399	0.02
481.752	0.02
482.104	0.04
482.457	0.03
482.809	0.02
483.162	0.03
483.514	0.02
483.866	0.01
484.219	0.03
484.571	0.01
484.923	0.02
485.275	0.02
485.627	0.03
485.979	0.02
486.331	0.03
486.683	0.03
487.035	0.02
487.387	0.02
487.739	0.02
488.091	0.03
488.443	0.01
488.794	0.01
489.146	0
489.498	0.02
489.849	0.01
490.201	0.01
490.552	0.01
490.904	0
491.255	0.01
491.607	0.02
491.958	0.02
492.309	0.01
492.661	0
493.012	0.01
493.363	0.01
493.714	-0
494.065	0.01
494.416	0.01
494.767	0.01
495.118	0.01
495.469	0.01
495.82	0.01
496.171	0.02
496.522	0
496.872	0.02
497.223	0
497.574	-0
497.924	0.01
498.275	0.02
498.626	0.01
498.976	-0
499.327	0
499.677	-0.01
500.027	0
500.378	-0
500.728	-0.02
501.078	-0.01
501.428	-0.02
501.779	-0.01
502.129	-0.02
502.479	-0.01
502.829	0
503.179	-0.01
503.529	0
503.879	-0
504.229	0.01
504.578	-0.01
504.928	0
505.278	-0
505.628	-0.02
505.977	-0.02
506.327	-0
506.676	-0.02
507.026	0
507.375	-0.01
507.725	-0.03
508.074	-0
508.424	-0.01
508.773	-0.01
509.122	-0.02
509.471	-0.02
509.82	-0.01
510.17	-0.01
510.519	-0.02
510.868	-0.03
511.217	-0.01
511.566	-0.01
511.915	-0.01
512.263	-0.01
512.612	-0.01
512.961	-0.02
513.31	-0
513.659	-0.01
514.007	-0.03
514.356	-0.01
514.704	-0.01
515.053	-0.02
515.401	-0.02
515.75	-0.03
516.098	-0.03
516.447	-0.01
516.795	-0.03
517.143	-0.03
517.491	-0.02
517.839	-0.03
518.188	-0.02
518.536	-0.01
518.884	-0.03
519.232	-0.02
519.58	-0.03
519.928	-0.02
520.275	-0.03
520.623	-0.02
520.971	-0.02
521.319	-0.02
521.666	-0.03
522.014	-0.02
522.362	-0.02
522.709	-0.03
523.057	-0.02
523.404	-0.03
523.752	-0.01
524.099	-0.04
524.446	-0.03
524.794	-0.04
525.141	-0.01
525.488	-0.03
525.835	-0.02
526.182	-0.02
526.529	-0.01
526.876	-0.02
527.223	-0.02
527.57	-0.02
527.917	-0.01
528.264	-0.03
528.611	-0.02
528.958	-0.03
529.304	-0.03
529.651	-0.03
529.998	-0.03
530.344	-0.04
530.691	-0.03
531.037	-0.03
531.384	-0.04
531.73	-0.02
532.076	-0.03
532.423	-0.04
532.769	-0.02
533.115	-0.02
533.461	-0.04
533.807	-0.02
534.154	-0.02
534.5	-0.01
534.846	-0.03
535.192	-0.02
535.537	-0.04
535.883	-0.02
536.229	-0.02
536.575	-0.02
536.921	-0.02
537.266	-0.02
537.612	-0.04
537.957	-0.02
538.303	-0.03
538.649	-0.02
538.994	-0.03
539.339	-0.02
539.685	-0.02
540.03	-0.04
540.375	-0.03
540.721	-0.04
541.066	-0.02
541.411	-0.02
541.756	-0.03
542.101	-0.03
542.446	-0.03
542.791	-0.03
543.136	-0.02
543.481	-0.04
543.825	-0.03
544.17	-0.04
544.515	-0.02
544.86	-0.03
545.204	-0.04
545.549	-0.03
545.893	-0.05
546.238	-0.04
546.582	-0.03
546.927	-0.04
547.271	-0.03
547.615	-0.04
547.96	-0.03
548.304	-0.03
548.648	-0.03
548.992	-0.03
549.336	-0.03
549.68	-0.03
550.024	-0.04
550.368	-0.03
550.712	-0.03
551.056	-0.02
551.4	-0.03
551.743	-0.03
552.087	-0.02
552.431	-0.03
552.774	-0.03
553.118	-0.04
553.462	-0.03
553.805	-0.03
554.148	-0.02
554.492	-0.02
554.835	-0.03
555.178	-0.03
555.522	-0.05
555.865	-0.02
556.208	-0.04
556.551	-0.04
556.894	-0.04
557.237	-0.02
557.58	-0.03
557.923	-0.04
558.266	-0.04
558.609	-0.02
558.952	-0.04
559.294	-0.02
559.637	-0.04
559.98	-0.04
560.322	-0.03
560.665	-0.04
561.007	-0.03
561.35	-0.05
561.692	-0.02
562.034	-0.03
562.377	-0.02
562.719	-0.02
563.061	-0.03
563.403	-0.03
563.745	-0.03
564.088	-0.02
564.43	-0.03
564.772	-0.04
565.113	-0.03
565.455	-0.03
565.797	-0.03
566.139	-0.04
566.481	-0.03
566.822	-0.03
567.164	-0.03
567.506	-0.03
567.847	-0.03
568.189	-0.03
568.53	-0.04
568.872	-0.03
569.213	-0.02
569.554	-0.02
569.895	-0.02
570.237	-0.03
570.578	-0.03
570.919	-0.04
571.26	-0.03
571.601	-0.03
571.942	-0.02
572.283	-0.03
572.624	-0.02
572.965	-0.02
573.306	-0.04
573.646	-0.03
573.987	-0.04
574.328	-0.04
574.668	-0.04
575.009	-0.03
575.349	-0.04
575.69	-0.03
576.03	-0.03
576.37	-0.03
576.711	-0.03
577.051	-0.02
577.391	-0.03
577.731	-0.04
578.072	-0.03
578.412	-0.03
578.752	-0.04
579.092	-0.03
579.431	-0.03
579.771	-0.03
580.111	-0.01
580.451	-0.03
580.791	-0.03
581.13	-0.02
581.47	-0.04
581.81	-0.03
582.149	-0.03
582.489	-0.04
582.828	-0.03
583.167	-0.03
583.507	-0.02
583.846	-0.02
584.185	-0.02
584.525	-0.03
584.864	-0.02
585.203	-0.03
585.542	-0.03
585.881	-0.03
586.22	-0.03
586.559	-0.03
586.898	-0.03
587.236	-0.03
587.575	-0.03
587.914	-0.03
588.252	-0.03
588.591	-0.04
588.93	-0.03
589.268	-0.04
589.607	-0.03
589.945	-0.02
590.283	-0.02
590.622	-0.02
590.96	-0.03
591.298	-0.04
591.636	-0.03
591.974	-0.04
592.313	-0.04
592.651	-0.03
592.989	-0.04
593.326	-0.04
593.664	-0.04
594.002	-0.04
594.34	-0.03
594.678	-0.04
595.015	-0.03
595.353	-0.04
595.691	-0.02
596.028	-0.04
596.366	-0.04
596.703	-0.03
597.04	-0.04
597.378	-0.03
597.715	-0.05
598.052	-0.04
598.389	-0.05
598.726	-0.04
599.064	-0.04
599.401	-0.04
599.738	-0.04
600.074	-0.04
600.411	-0.04
600.748	-0.04
601.085	-0.03
601.422	-0.03
601.758	-0.03
602.095	-0.02
602.432	-0.02
602.768	-0.03
603.105	-0.03
603.441	-0.03
603.777	-0.01
604.114	-0.03
604.45	-0.03
604.786	-0.03
605.122	-0.03
605.459	-0.04
605.795	-0.03
606.131	-0.02
606.467	-0.03
606.803	-0.03
607.139	-0.02
607.474	-0.03
607.81	-0.03
608.146	-0.03
608.482	-0.04
608.817	-0.03
609.153	-0.03
609.488	-0.05
609.824	-0.03
610.159	-0.04
610.495	-0.04
610.83	-0.03
611.165	-0.03
611.5	-0.03
611.836	-0.04
612.171	-0.03
612.506	-0.04
612.841	-0.03
613.176	-0.04
613.511	-0.03
613.845	-0.04
614.18	-0.03
614.515	-0.04
614.85	-0.04
615.184	-0.03
615.519	-0.03
615.854	-0.03
616.188	-0.04
616.523	-0.05
616.857	-0.03
617.191	-0.02
617.526	-0.01
617.86	-0.04
618.194	-0.04
618.528	-0.03
618.862	-0.05
619.196	-0.04
619.53	-0.03
619.864	-0.04
620.198	-0.03
620.532	-0.03
620.866	-0.03
621.2	-0.04
621.533	-0.04
621.867	-0.03
622.201	-0.02
622.534	-0.03
622.868	-0.02
623.201	-0.03
623.534	-0.02
623.868	-0.03
624.201	-0.03
624.534	-0.03
624.868	-0.03
625.201	-0.03
625.534	-0.04
625.867	-0.03
626.2	-0.03
626.533	-0.04
626.865	-0.04
627.198	-0.04
627.531	-0.05
627.864	-0.04
628.196	-0.04
628.529	-0.04
628.862	-0.03
629.194	-0.03
629.527	-0.04
629.859	-0.04
630.191	-0.04
630.524	-0.05
630.856	-0.05
631.188	-0.03
631.52	-0.05
631.852	-0.04
632.184	-0.04
632.516	-0.04
632.848	-0.05
633.18	-0.05
633.512	-0.04
633.844	-0.04
634.175	-0.05
634.507	-0.04
634.839	-0.05
635.17	-0.05
635.502	-0.03
635.833	-0.04
636.165	-0.04
636.496	-0.05
636.827	-0.05
637.159	-0.04
637.49	-0.05
637.821	-0.05
638.152	-0.03
638.483	-0.03
638.814	-0.04
639.145	-0.04
639.476	-0.04
639.807	-0.04
640.137	-0.05
640.468	-0.04
640.799	-0.04
641.129	-0.05
641.46	-0.06
641.791	-0.04
642.121	-0.06
642.451	-0.05
642.782	-0.05
643.112	-0.05
643.442	-0.04
643.773	-0.05
644.103	-0.05
644.433	-0.04
644.763	-0.03
645.093	-0.04
645.423	-0.04
645.753	-0.04
646.082	-0.05
646.412	-0.04
646.742	-0.04
647.072	-0.05
647.401	-0.04
647.731	-0.04
648.06	-0.04
648.39	-0.04
648.719	-0.04
649.048	-0.05
649.378	-0.05
649.707	-0.04
650.036	-0.04
650.365	-0.04
650.694	-0.04
651.023	-0.04
651.352	-0.04
651.681	-0.04
652.01	-0.03
652.339	-0.03
652.668	-0.03
652.996	-0.02
653.325	-0.05
653.654	-0.04
653.982	-0.03
654.311	-0.04
654.639	-0.04
654.967	-0.03
655.296	-0.03
655.624	-0.05
655.952	-0.07
656.28	-0.06
656.609	-0.04
656.937	-0.05
657.265	-0.03
657.593	-0.02
657.92	-0.01
658.248	-0.01
658.576	-0.02
658.904	-0.02
659.231	-0.03
659.559	-0.04
659.887	-0.03
660.214	-0.03
660.542	-0.03
660.869	-0.04
661.196	-0.04
661.524	-0.05
661.851	-0.04
662.178	-0.04
662.505	-0.04
662.832	-0.04
663.159	-0.05
663.486	-0.04
663.813	-0.04
664.14	-0.04
664.467	-0.04
664.794	-0.03
665.12	-0.04
665.447	-0.04
665.774	-0.03
666.1	-0.05
666.427	-0.06
666.753	-0.04
667.079	-0.05
667.406	-0.03
667.732	-0.05
668.058	-0.04
668.384	-0.04
668.71	-0.04
669.036	-0.04
669.362	-0.04
669.688	-0.05
670.014	-0.05
670.34	-0.03
670.666	-0.05
670.991	-0.04
671.317	-0.04
671.643	-0.05
671.968	-0.05
672.294	-0.06
672.619	-0.06
672.945	-0.06
673.27	-0.05
673.595	-0.04
673.92	-0.05
674.246	-0.06
674.571	-0.05
674.896	-0.06
675.221	-0.05
675.546	-0.06
675.87	-0.05
676.195	-0.06
676.52	-0.05
676.845	-0.05
677.169	-0.04
677.494	-0.03
677.819	-0.04
678.143	-0.03
678.468	-0.04
678.792	-0.04
679.116	-0.04
679.44	-0.04
679.765	-0.03
680.089	-0.04
680.413	-0.03
680.737	-0.05
681.061	-0.04
681.385	-0.03
681.709	-0.04
682.033	-0.05
682.356	-0.04
682.68	-0.03
683.004	-0.05
683.327	-0.05
683.651	-0.06
683.974	-0.04
684.298	-0.06
684.621	-0.05
684.944	-0.06
685.268	-0.05
685.591	-0.05
685.914	-0.05
686.237	-0.06
686.56	-0.05
686.883	-0.05
687.206	-0.05
687.529	-0.04
687.852	-0.05
688.175	-0.04
688.497	-0.05
688.82	-0.05
689.142	-0.05
689.465	-0.07
689.787	-0.05
690.11	-0.06
690.432	-0.06
690.755	-0.07
691.077	-0.07
691.399	-0.07
691.721	-0.07
692.043	-0.05
692.365	-0.06
692.687	-0.05
693.009	-0.05
693.331	-0.06
693.653	-0.05
693.974	-0.06
694.296	-0.06
694.618	-0.06
694.939	-0.06
695.261	-0.05
695.582	-0.06
695.904	-0.05
696.225	-0.07
696.546	-0.05
696.868	-0.06
697.189	-0.05
697.51	-0.05
697.831	-0.05
698.152	-0.04
698.473	-0.05
698.794	-0.03
699.114	-0.06
699.435	-0.06
699.756	-0.06
700.077	-0.05
700.397	-0.05
700.718	-0.06
701.038	-0.05
701.359	-0.05
701.679	-0.04
701.999	-0.04
702.32	-0.06
702.64	-0.06
702.96	-0.06
703.28	-0.05
703.6	-0.04
703.92	-0.06
704.24	-0.06
704.56	-0.06
704.879	-0.06
705.199	-0.06
705.519	-0.06
705.838	-0.07
706.158	-0.06
706.478	-0.06
706.797	-0.05
707.116	-0.06
707.436	-0.05
707.755	-0.05
708.074	-0.05
708.393	-0.04
708.712	-0.04
709.031	-0.04
709.35	-0.04
709.669	-0.04
709.988	-0.04
710.307	-0.05
710.626	-0.04
710.944	-0.03
711.263	-0.05
711.582	-0.06
711.9	-0.05
712.219	-0.06
712.537	-0.05
712.855	-0.06
713.174	-0.04
713.492	-0.05
713.81	-0.06
714.128	-0.05
714.446	-0.06
714.764	-0.06
715.082	-0.04
715.4	-0.05
715.718	-0.04
716.035	-0.03
716.353	-0.03
716.671	-0.05
716.988	-0.05
717.306	-0.04
717.623	-0.04
717.941	-0.04
718.258	-0.05
718.575	-0.04
718.893	-0.05
719.21	-0.04
719.527	-0.05
719.844	-0.06
720.161	-0.05
720.478	-0.06
720.795	-0.06
721.112	-0.07
721.428	-0.06
721.745	-0.06
722.062	-0.06
722.378	-0.07
722.695	-0.05
723.011	-0.06
723.328	-0.05
723.644	-0.07
723.96	-0.06
724.276	-0.06
724.593	-0.06
724.909	-0.05
725.225	-0.07
725.541	-0.05
725.857	-0.06
726.173	-0.06
726.488	-0.06
726.804	-0.06
727.12	-0.05
727.435	-0.04
727.751	-0.06
728.067	-0.06
728.382	-0.05
728.697	-0.05
729.013	-0.05
729.328	-0.05
729.643	-0.05
729.958	-0.05
730.273	-0.05
730.588	-0.04
730.903	-0.05
731.218	-0.05
731.533	-0.04
731.848	-0.04
732.163	-0.04
732.477	-0.03
732.792	-0.03
733.107	-0.03
733.421	-0.04
733.736	-0.04
734.05	-0.04
734.364	-0.02
734.678	-0.04
734.993	-0.03
735.307	-0.04
735.621	-0.03
735.935	-0.03
736.249	-0.04
736.563	-0.03
736.877	-0.03
737.19	-0.04
737.504	-0.03
737.818	-0.04
738.131	-0.03
738.445	-0.03
738.758	-0.04
739.072	-0.04
739.385	-0.03
739.698	-0.03
740.012	-0.04
740.325	-0.03
740.638	-0.03
740.951	-0.04
741.264	-0.05
741.577	-0.03
741.89	-0.05
742.203	-0.04
742.515	-0.04
742.828	-0.04
743.141	-0.04
743.453	-0.04
743.766	-0.04
744.078	-0.04
744.391	-0.05
744.703	-0.05
745.015	-0.04
745.327	-0.03
745.639	-0.03
745.952	-0.04
746.264	-0.04
746.575	-0.04
746.887	-0.04
747.199	-0.05
747.511	-0.04
747.823	-0.05
748.134	-0.06
748.446	-0.05
748.757	-0.05
749.069	-0.06
749.38	-0.04
749.692	-0.05
750.003	-0.06
750.314	-0.06
750.625	-0.05
750.936	-0.05
751.248	-0.04
751.559	-0.05
751.869	-0.05
752.18	-0.04
752.491	-0.05
752.802	-0.06
753.112	-0.06
753.423	-0.04
753.734	-0.04
754.044	-0.07
754.355	-0.04
754.665	-0.05
754.975	-0.05
755.285	-0.04
755.596	-0.03
755.906	-0.03
756.216	-0.03
756.526	-0.03
756.836	-0.02
757.146	-0.01
757.455	-0.02
757.765	-0.02
758.075	-0.02
758.385	-0.01
758.694	0.01
759.004	-0
759.313	0
759.622	-0
759.932	-0.01
760.241	-0
760.55	-0
760.859	-0.01
761.168	-0.02
761.477	-0.03
761.786	-0.04
762.095	-0.04
762.404	-0.05
762.713	-0.04
763.021	-0.04
763.33	-0.04
763.639	-0.03
763.947	-0.03
764.256	-0.04
764.564	-0.03
764.872	-0.01
765.181	-0.02
765.489	-0.02
765.797	-0.02
766.105	-0.02
766.413	-0.02
766.721	-0.03
767.029	-0.03
767.337	-0.02
767.644	-0.04
767.952	-0.04
768.26	-0.02
768.567	-0.02
768.875	-0.02
769.182	-0.04
769.49	-0.04
769.797	-0.03
770.104	-0.04
770.411	-0.02
770.718	-0.03
771.026	-0.03
771.333	-0.02
771.639	-0.01
771.946	-0.03
772.253	-0.03
772.56	-0.04
772.867	-0.04
773.173	-0.03
773.48	-0.02
773.786	-0.05
774.093	-0.04
774.399	-0.05
774.705	-0.04
775.012	-0.05
775.318	-0.04
775.624	-0.04
775.93	-0.04
776.236	-0.04
776.542	-0.04
776.848	-0.05
777.154	-0.03
777.459	-0.04
777.765	-0.03
778.071	-0.03
778.376	-0.05
778.682	-0.03
778.987	-0.05
779.292	-0.03
779.598	-0.04
779.903	-0.03
780.208	-0.05
780.513	-0.03
780.818	-0.03
781.123	-0.02
781.428	-0.03
781.733	-0.03
782.038	-0.02
782.343	-0.02
782.647	-0.01
782.952	-0.02
783.256	-0.02
783.561	-0.01
783.865	-0.02
784.17	-0.01
784.474	-0.01
784.778	-0.02
785.082	0
785.386	-0.01
785.69	-0.01
785.994	-0.01
786.298	0.01
786.602	0
786.906	-0.01
787.209	-0
787.513	-0.01
787.817	-0.01
788.12	0.01
788.424	0.01
788.727	-0
789.03	0.01
789.333	0.03
789.637	-0
789.94	0.02
790.243	-0
790.546	0.02
790.849	0.01
791.152	0.02
791.454	0.02
791.757	0.03
792.06	-0
792.362	0.01
792.665	-0.02
792.967	-0.01
793.27	0.01
793.572	0.01
793.874	0
794.177	0.03
794.479	0.02
794.781	0.02
795.083	0.06
795.385	0.01
795.687	0.03
795.989	0.02
796.29	0.02
796.592	0.01
796.894	0.02
797.195	0.05
797.497	0.02
797.798	0.02
798.1	0.02
798.401	0.01
798.702	-0.02
799.003	-0.02
799.304	0.04
799.605	0.02
799.906	0.01
800.207	0.04
800.508	0.01
800.809	0.05
801.11	0.02
801.41	0.03
801.711	0.03
802.011	0.05
802.312	0.04
802.612	0.01
802.913	0.04
803.213	0.08
803.513	0.06
803.813	0.02
804.113	0.06
804.413	0.04
804.713	0.04
805.013	0.04
805.313	0.05
805.613	0.06
805.912	0.05
806.212	0.06
806.511	0.04
806.811	0.04
807.11	0.05
807.41	0.07
807.709	0.03
808.008	0.03
808.307	0.03
808.606	0.09
808.905	0.03
809.204	0.04
809.503	0.07
809.802	0.06
810.101	0.04
810.399	-0
810.698	0.01
810.997	0.03
811.295	0.07
811.593	0.03
811.892	0.03
812.19	0.05
812.488	0
812.786	0.09
813.084	0
813.383	-0.01
813.68	0.1
813.978	0.09
814.276	0.13
814.574	0.11
814.872	0.08
815.169	0.09
815.467	0.01
815.764	0.07
816.062	0.01
816.359	0.07
816.656	0.08
816.954	0.01
817.251	0.04
817.548	0.06
817.845	0.08
818.142	0.09
818.439	0.01
818.735	0.06
819.032	0.05
819.329	0.08
819.626	-0
819.922	0.03
820.219	0.04
820.515	0.09
820.811	0.1
821.108	0.06
821.404	0.1
821.7	0.04
821.996	0.07
822.292	0.08
822.588	0.07
822.884	0.11
823.18	0.08
823.475	0.08
823.771	-0.01
824.067	0.01
824.362	0.01
824.658	0.11
824.953	0.05
825.249	0.06
825.544	0.06
825.839	0.05
826.134	-0.01
826.429	0.09
826.724	-0.05
827.019	-0.01
827.314	-0.09
827.609	0.03
827.904	-0.01
828.198	0.1
828.493	0.04
828.787	0.07
829.082	0.03
829.376	0.08
829.671	0.03
829.965	0.02
830.259	0.02
830.553	-0.07
830.847	0.07
831.141	-0.02
831.435	0.09
831.729	0.03
832.023	0.11
832.317	0.04
832.61	0.07
832.904	0.06
833.197	0.01
833.491	0.06
833.784	-0.08
834.077	-0.01
834.371	0.17
834.664	0.02
834.957	0.11
835.25	0.35
835.543	0.08
835.836	0.08
836.129	0.13
836.421	-0.01
836.714	-0.07
837.007	0.14
837.299	0.18
837.592	-0
837.884	-0
838.177	0.09
838.469	-0.06
838.761	0.14
839.053	0.17
839.345	0.2
839.637	-0.03
839.929	0.13
840.221	0.1
840.513	-0.03
840.805	0.07
841.096	-0.02
841.388	0.12
841.68	-0.01
841.971	0.03
842.262	0.02
842.554	0
842.845	0.03
843.136	-0.1
843.427	-0.22
843.718	0.03
844.009	0.09
844.3	-0.25
844.591	-0.18
844.882	-0
845.173	0.02
845.463	-0.01
845.754	-0.29
846.044	0.12
846.335	0.06
846.625	-0
846.915	-0.06
847.206	0.05
847.496	0.05
847.786	-0.12
848.076	-0.53
848.366	-0.16
848.656	-0.25
848.945	0.13
849.235	0.02
849.525	-0.32
849.814	0.2
850.104	0.1
850.393	-0.33
850.683	-0.34
850.972	0.05
851.261	-0.05
851.551	-0.15
851.84	0.42
852.129	-0.07
852.418	0.08
852.707	-0.24
852.995	0.01
853.284	0.1
853.573	-0.47
853.862	-0.15
854.15	0.1
854.439	-0.22
854.727	-0.53
855.015	-0.23
855.304	0.18
855.592	-0.26
855.88	-0.21
856.168	-0.05
856.456	0.04
856.744	0.02
857.032	-0.2
857.32	-0.2
857.607	-0.23
857.895	0.35
858.183	-0.33
858.47	-0.1
858.757	-0
859.045	-0
859.332	-0
859.619	0.05
859.907	-0.05
860.194	0.3
860.481	-0.04
860.768	-0
861.054	-0
861.341	-0
861.628	-0
861.915	-0
862.201	0.63
862.488	-0.64
862.774	-0
863.061	0.17
863.347	-0.02
863.633	-0
863.919	-0.24
864.205	0.45
864.491	-0.1
864.777	-0
865.063	0.06
865.349	0.6
865.635	-0.1
865.92	-0.27
866.206	-0.4
866.492	-0
866.777	-0.2
867.062	-0.1
867.348	-0
867.633	-0.07
867.918	0.41
868.203	0.3
868.488	0.7
868.773	-1.08
869.058	-0
869.343	-0.03
869.628	-0
869.912	-0
870.197	0.57
870.482	-0
870.766	-0.18
871.05	-0
871.335	0.12
871.619	0.88
871.903	-0
872.187	-0.27
872.471	0.93
872.755	-0
873.039	0.04
873.323	-0.27
873.607	0.9
873.89	-0.57
874.174	0.13
874.458	-0.21
874.741	0.6
875.024	1.38
875.308	0.76
875.591	-0
875.874	0.32
876.157	-0.7
876.44	-0
876.723	0.44
877.006	0.94
877.289	-0
877.572	-0
877.854	0.24
878.137	-0.07
878.42	0.28
878.702	-0.12
878.984	-0
879.267	-0.07
879.549	-0
879.831	0.48
880.113	-0.22
880.395	-0
880.677	-0.18
880.959	-0.04
