Data from c2t_JH05_50uM_Absorbance_11-14-40-018.txt Node
Date: Thu Dec 21 11:14:40 GMT 2017
User: egn-admin
Spectrometer: OFX00224
Trigger mode: 0
Integration Time (sec): 5.000000E-2
Scans to average: 1
Nonlinearity correction enabled: false
Boxcar width: 0
Storing dark spectrum: false
XAxis mode: Wavelengths
Number of Pixels in Spectrum: 2136
>>>>>Begin Spectral Data<<<<<
154.91	-0
155.289	-0.12
155.669	0.45
156.048	0.92
156.428	-0.74
156.807	0.56
157.186	-0
157.566	0.12
157.945	-0
158.325	-0
158.704	-0
159.083	-0
159.462	0.05
159.842	-0
160.221	0.78
160.6	0.04
160.979	-0.65
161.359	-0
161.738	0.09
162.117	-0.6
162.496	-0
162.875	-0.88
163.254	-0.12
163.633	0.07
164.012	-0
164.391	-1.3
164.77	-0
165.149	-0
165.528	-0
165.907	-1
166.286	0.28
166.665	1.1
167.044	-0
167.423	-0.28
167.802	-0
168.181	-0
168.559	-0
168.938	-0
169.317	0.19
169.696	0.26
170.074	0.62
170.453	-0
170.832	-0.15
171.21	-0
171.589	1.02
171.968	0.48
172.346	-0.03
172.725	-0
173.103	-0
173.482	0.09
173.861	-0
174.239	-0.33
174.617	-0.6
174.996	-0
175.374	-0
175.753	-0.9
176.131	-0
176.51	-0.24
176.888	-0.08
177.266	-0.09
177.645	0.22
178.023	-0
178.401	-0
178.779	-0
179.158	0.12
179.536	0.22
179.914	-0.58
180.292	-0
180.67	0.38
181.048	-0
181.427	-0.48
181.805	0.07
182.183	0.65
182.561	-0
182.939	0.03
183.317	-0.48
183.695	-0
184.073	0.7
184.451	-0
184.829	-0.22
185.206	0.1
185.584	-0.23
185.962	0.48
186.34	-0.3
186.718	-0.03
187.096	0.11
187.473	0.98
187.851	-0.48
188.229	-0.23
188.607	0.3
188.984	0.74
189.362	-0.04
189.74	0.01
190.117	-0
190.495	-0.01
190.872	-0.03
191.25	0.44
191.627	-0.27
192.005	0.25
192.382	-0.33
192.76	0.16
193.137	-0.17
193.515	0.15
193.892	0.77
194.269	0.6
194.647	-0.02
195.024	0.02
195.401	0.34
195.779	0.19
196.156	-0.09
196.533	-0.22
196.91	-0.37
197.288	-0.82
197.665	-0
198.042	-0.05
198.419	-0.07
198.796	-0.11
199.173	1.3
199.55	0.3
199.927	-0.36
200.304	-0.14
200.681	-0.24
201.058	0.56
201.435	0.02
201.812	0.06
202.189	-0.07
202.566	0.12
202.943	0.16
203.32	0.46
203.697	0.29
204.073	0.22
204.45	0.04
204.827	0.39
205.204	-0
205.58	0.08
205.957	0.3
206.334	0.52
206.71	-0.1
207.087	0.03
207.464	-0.18
207.84	0.52
208.217	0.23
208.593	-0.21
208.97	-0.08
209.346	0.19
209.723	-0.17
210.099	0.23
210.476	-0.2
210.852	0.29
211.228	-0.26
211.605	0.29
211.981	0.19
212.357	0.57
212.733	0.15
213.11	0.01
213.486	0.14
213.862	0.13
214.238	0.05
214.614	-0.05
214.991	-0.1
215.367	0.18
215.743	0.07
216.119	0.09
216.495	-0.01
216.871	-0.2
217.247	0.22
217.623	0.35
217.999	-0
218.375	-0.11
218.751	0.16
219.127	0.37
219.502	0.04
219.878	0.08
220.254	-0.08
220.63	-0.02
221.006	-0.11
221.381	0.39
221.757	0.07
222.133	0.28
222.508	-0.05
222.884	0.09
223.26	0.16
223.635	-0.02
224.011	-0.14
224.386	0.29
224.762	-0.19
225.137	0.12
225.513	0.1
225.888	-0.72
226.264	-0.02
226.639	0.05
227.014	-0.14
227.39	0.69
227.765	-0.01
228.14	0.14
228.516	0.11
228.891	0.03
229.266	-0.16
229.641	-0
230.017	0.12
230.392	-0.08
230.767	-0.02
231.142	-0.2
231.517	0.19
231.892	0.22
232.267	0.23
232.642	0.02
233.017	0.09
233.392	0.94
233.767	-0.01
234.142	-0.14
234.517	0.26
234.892	0.36
235.267	0.17
235.641	0.65
236.016	0.25
236.391	-0.02
236.766	0.11
237.14	0.05
237.515	0.09
237.89	0.2
238.264	0.33
238.639	0.46
239.014	0.06
239.388	0.21
239.763	0.12
240.137	0.19
240.512	-0
240.886	0.35
241.261	-0.04
241.635	-0.14
242.009	0.39
242.384	0.06
242.758	0.08
243.132	0.09
243.507	-0.16
243.881	0.24
244.255	0.15
244.629	0.37
245.004	0.27
245.378	0.22
245.752	-0
246.126	-0.05
246.5	0.28
246.874	0.04
247.248	0.31
247.622	0.17
247.996	0.11
248.37	0.41
248.744	0.38
249.118	-0.07
249.492	-0
249.866	0.09
250.24	0.08
250.613	0.22
250.987	0.07
251.361	0.04
251.735	0.23
252.108	0.14
252.482	0.02
252.856	0.16
253.229	0.1
253.603	-0
253.977	0.16
254.35	0.18
254.724	0.33
255.097	0.45
255.471	0.27
255.844	0.31
256.218	0.15
256.591	0.24
256.964	0.29
257.338	0.24
257.711	0.27
258.084	0.27
258.458	0.22
258.831	0.25
259.204	0.24
259.577	0.24
259.95	0.16
260.323	0.26
260.697	0.14
261.07	0.28
261.443	0.24
261.816	0.27
262.189	0.1
262.562	0.22
262.935	0.25
263.308	0.2
263.68	0.26
264.053	0.25
264.426	0.24
264.799	0.23
265.172	0.25
265.545	0.19
265.917	0.2
266.29	0.19
266.663	0.18
267.035	0.19
267.408	0.21
267.781	0.18
268.153	0.17
268.526	0.18
268.898	0.16
269.271	0.19
269.643	0.17
270.016	0.18
270.388	0.18
270.76	0.14
271.133	0.17
271.505	0.14
271.877	0.16
272.25	0.16
272.622	0.13
272.994	0.15
273.366	0.14
273.739	0.15
274.111	0.15
274.483	0.15
274.855	0.16
275.227	0.16
275.599	0.16
275.971	0.14
276.343	0.14
276.715	0.14
277.087	0.17
277.459	0.16
277.831	0.16
278.203	0.15
278.574	0.15
278.946	0.15
279.318	0.14
279.69	0.17
280.061	0.15
280.433	0.16
280.805	0.16
281.176	0.18
281.548	0.15
281.92	0.16
282.291	0.17
282.663	0.17
283.034	0.18
283.406	0.17
283.777	0.17
284.148	0.17
284.52	0.19
284.891	0.19
285.262	0.18
285.634	0.2
286.005	0.19
286.376	0.19
286.747	0.2
287.119	0.21
287.49	0.21
287.861	0.2
288.232	0.22
288.603	0.23
288.974	0.22
289.345	0.21
289.716	0.23
290.087	0.22
290.458	0.23
290.829	0.23
291.2	0.24
291.571	0.25
291.941	0.23
292.312	0.24
292.683	0.23
293.054	0.24
293.424	0.25
293.795	0.25
294.166	0.25
294.536	0.24
294.907	0.27
295.277	0.26
295.648	0.27
296.018	0.26
296.389	0.26
296.759	0.27
297.13	0.26
297.5	0.27
297.871	0.26
298.241	0.29
298.611	0.27
298.981	0.29
299.352	0.28
299.722	0.28
300.092	0.29
300.462	0.29
300.832	0.29
301.202	0.29
301.573	0.32
301.943	0.3
302.313	0.31
302.683	0.32
303.053	0.31
303.422	0.32
303.792	0.32
304.162	0.34
304.532	0.34
304.902	0.33
305.272	0.33
305.641	0.34
306.011	0.36
306.381	0.35
306.75	0.36
307.12	0.36
307.49	0.37
307.859	0.36
308.229	0.38
308.598	0.38
308.968	0.38
309.337	0.38
309.707	0.39
310.076	0.39
310.445	0.4
310.815	0.39
311.184	0.4
311.553	0.4
311.923	0.42
312.292	0.4
312.661	0.42
313.03	0.42
313.399	0.43
313.768	0.42
314.137	0.43
314.506	0.44
314.875	0.45
315.244	0.45
315.613	0.45
315.982	0.46
316.351	0.46
316.72	0.46
317.089	0.47
317.458	0.47
317.826	0.48
318.195	0.49
318.564	0.49
318.933	0.49
319.301	0.49
319.67	0.51
320.038	0.51
320.407	0.5
320.775	0.53
321.144	0.53
321.512	0.53
321.881	0.54
322.249	0.55
322.618	0.54
322.986	0.54
323.354	0.54
323.723	0.54
324.091	0.57
324.459	0.57
324.827	0.58
325.195	0.58
325.564	0.57
325.932	0.59
326.3	0.61
326.668	0.61
327.036	0.6
327.404	0.61
327.772	0.6
328.14	0.6
328.508	0.62
328.875	0.64
329.243	0.65
329.611	0.66
329.979	0.65
330.346	0.67
330.714	0.66
331.082	0.65
331.449	0.66
331.817	0.65
332.185	0.66
332.552	0.67
332.92	0.68
333.287	0.69
333.655	0.69
334.022	0.71
334.389	0.7
334.757	0.72
335.124	0.72
335.491	0.71
335.859	0.72
336.226	0.72
336.593	0.73
336.96	0.72
337.327	0.74
337.695	0.74
338.062	0.75
338.429	0.75
338.796	0.76
339.163	0.77
339.53	0.76
339.897	0.76
340.263	0.77
340.63	0.78
340.997	0.78
341.364	0.77
341.731	0.78
342.097	0.79
342.464	0.79
342.831	0.79
343.197	0.79
343.564	0.79
343.931	0.78
344.297	0.8
344.664	0.8
345.03	0.8
345.396	0.81
345.763	0.8
346.129	0.79
346.496	0.8
346.862	0.81
347.228	0.82
347.594	0.8
347.961	0.81
348.327	0.83
348.693	0.81
349.059	0.8
349.425	0.84
349.791	0.81
350.157	0.81
350.523	0.83
350.889	0.83
351.255	0.83
351.621	0.82
351.987	0.82
352.353	0.82
352.719	0.81
353.084	0.82
353.45	0.84
353.816	0.82
354.181	0.83
354.547	0.8
354.913	0.81
355.278	0.81
355.644	0.81
356.009	0.8
356.375	0.78
356.74	0.81
357.106	0.8
357.471	0.79
357.836	0.79
358.202	0.8
358.567	0.78
358.932	0.77
359.297	0.8
359.663	0.78
360.028	0.76
360.393	0.76
360.758	0.75
361.123	0.77
361.488	0.76
361.853	0.77
362.218	0.74
362.583	0.75
362.948	0.76
363.312	0.73
363.677	0.73
364.042	0.73
364.407	0.73
364.772	0.73
365.136	0.71
365.501	0.72
365.865	0.71
366.23	0.69
366.595	0.72
366.959	0.7
367.324	0.68
367.688	0.7
368.052	0.66
368.417	0.7
368.781	0.67
369.145	0.66
369.51	0.64
369.874	0.66
370.238	0.63
370.602	0.63
370.967	0.63
371.331	0.66
371.695	0.6
372.059	0.62
372.423	0.61
372.787	0.61
373.151	0.61
373.515	0.59
373.878	0.58
374.242	0.58
374.606	0.58
374.97	0.57
375.334	0.55
375.697	0.54
376.061	0.55
376.425	0.55
376.788	0.56
377.152	0.54
377.515	0.52
377.879	0.51
378.242	0.5
378.606	0.5
378.969	0.49
379.333	0.49
379.696	0.49
380.059	0.48
380.422	0.47
380.786	0.45
381.149	0.46
381.512	0.45
381.875	0.43
382.238	0.42
382.601	0.43
382.964	0.41
383.327	0.41
383.69	0.41
384.053	0.4
384.416	0.4
384.779	0.38
385.142	0.38
385.504	0.38
385.867	0.36
386.23	0.35
386.593	0.35
386.955	0.35
387.318	0.34
387.68	0.33
388.043	0.33
388.405	0.33
388.768	0.32
389.13	0.31
389.493	0.31
389.855	0.32
390.217	0.3
390.58	0.29
390.942	0.29
391.304	0.29
391.666	0.28
392.028	0.28
392.391	0.27
392.753	0.26
393.115	0.26
393.477	0.27
393.839	0.26
394.201	0.25
394.563	0.27
394.924	0.25
395.286	0.26
395.648	0.25
396.01	0.24
396.371	0.25
396.733	0.25
397.095	0.24
397.456	0.24
397.818	0.24
398.18	0.23
398.541	0.22
398.903	0.23
399.264	0.22
399.625	0.21
399.987	0.21
400.348	0.22
400.709	0.21
401.071	0.22
401.432	0.22
401.793	0.22
402.154	0.2
402.515	0.21
402.876	0.2
403.238	0.2
403.599	0.21
403.96	0.21
404.32	0.2
404.681	0.2
405.042	0.2
405.403	0.2
405.764	0.19
406.125	0.21
406.485	0.2
406.846	0.2
407.207	0.21
407.567	0.2
407.928	0.2
408.288	0.19
408.649	0.19
409.009	0.18
409.37	0.18
409.73	0.19
410.091	0.18
410.451	0.18
410.811	0.18
411.171	0.17
411.532	0.17
411.892	0.17
412.252	0.16
412.612	0.18
412.972	0.17
413.332	0.17
413.692	0.18
414.052	0.17
414.412	0.18
414.772	0.19
415.132	0.18
415.492	0.18
415.851	0.18
416.211	0.18
416.571	0.18
416.931	0.17
417.29	0.18
417.65	0.17
418.009	0.19
418.369	0.18
418.728	0.16
419.088	0.18
419.447	0.16
419.807	0.17
420.166	0.17
420.525	0.18
420.884	0.17
421.244	0.17
421.603	0.16
421.962	0.17
422.321	0.16
422.68	0.16
423.039	0.17
423.398	0.16
423.757	0.16
424.116	0.16
424.475	0.17
424.834	0.17
425.193	0.16
425.551	0.15
425.91	0.16
426.269	0.16
426.628	0.17
426.986	0.15
427.345	0.16
427.703	0.16
428.062	0.17
428.42	0.18
428.779	0.15
429.137	0.17
429.496	0.15
429.854	0.17
430.212	0.17
430.57	0.17
430.929	0.15
431.287	0.15
431.645	0.15
432.003	0.16
432.361	0.15
432.719	0.16
433.077	0.16
433.435	0.14
433.793	0.15
434.151	0.14
434.509	0.13
434.866	0.15
435.224	0.15
435.582	0.15
435.94	0.14
436.297	0.14
436.655	0.13
437.012	0.15
437.37	0.15
437.727	0.15
438.085	0.15
438.442	0.13
438.8	0.15
439.157	0.13
439.514	0.14
439.872	0.14
440.229	0.13
440.586	0.13
440.943	0.14
441.3	0.13
441.657	0.13
442.014	0.12
442.371	0.14
442.728	0.14
443.085	0.15
443.442	0.13
443.799	0.12
444.156	0.13
444.513	0.12
444.869	0.13
445.226	0.13
445.583	0.14
445.939	0.13
446.296	0.12
446.652	0.13
447.009	0.11
447.365	0.12
447.722	0.12
448.078	0.12
448.434	0.12
448.791	0.12
449.147	0.11
449.503	0.12
449.859	0.11
450.215	0.1
450.571	0.1
450.928	0.1
451.284	0.11
451.64	0.1
451.995	0.1
452.351	0.1
452.707	0.1
453.063	0.11
453.419	0.1
453.775	0.09
454.13	0.1
454.486	0.09
454.842	0.1
455.197	0.08
455.553	0.08
455.908	0.08
456.264	0.09
456.619	0.09
456.975	0.09
457.33	0.07
457.685	0.09
458.04	0.08
458.396	0.07
458.751	0.08
459.106	0.08
459.461	0.07
459.816	0.08
460.171	0.07
460.526	0.07
460.881	0.07
461.236	0.07
461.591	0.07
461.946	0.06
462.301	0.06
462.655	0.06
463.01	0.06
463.365	0.06
463.719	0.05
464.074	0.05
464.428	0.04
464.783	0.04
465.137	0.04
465.492	0.04
465.846	0.04
466.201	0.04
466.555	0.04
466.909	0.05
467.263	0.04
467.618	0.04
467.972	0.04
468.326	0.04
468.68	0.04
469.034	0.03
469.388	0.03
469.742	0.03
470.096	0.03
470.45	0.02
470.804	0.03
471.157	0.03
471.511	0.02
471.865	0.03
472.218	0.02
472.572	0.03
472.926	0.01
473.279	0.03
473.633	0.02
473.986	0.03
474.34	0.02
474.693	0.02
475.046	0.01
475.4	0
475.753	0.02
476.106	0.01
476.459	0.01
476.812	0.02
477.165	0.01
477.519	0.01
477.872	0.02
478.224	0.01
478.577	0.02
478.93	0.02
479.283	0.01
479.636	-0.01
479.989	0
480.341	0.01
480.694	0.01
481.047	0.01
481.399	0.01
481.752	-0
482.104	0.01
482.457	0.01
482.809	-0
483.162	0
483.514	-0.01
483.866	-0
484.219	0
484.571	-0.01
484.923	0.01
485.275	0
485.627	-0
485.979	-0
486.331	-0
486.683	0
487.035	0
487.387	0
487.739	0.01
488.091	0
488.443	-0.01
488.794	-0.01
489.146	-0.02
489.498	-0
489.849	-0.02
490.201	-0.01
490.552	-0.02
490.904	-0
491.255	-0.01
491.607	-0
491.958	0.01
492.309	0
492.661	-0.01
493.012	-0.01
493.363	-0
493.714	-0.01
494.065	-0
494.416	-0
494.767	-0
495.118	-0.01
495.469	-0.01
495.82	-0
496.171	0.02
496.522	-0.01
496.872	0
497.223	-0.01
497.574	-0.02
497.924	-0.02
498.275	0.01
498.626	-0
498.976	-0.01
499.327	0
499.677	-0.01
500.027	-0.01
500.378	-0.01
500.728	-0.02
501.078	-0.01
501.428	-0.02
501.779	-0.02
502.129	-0.01
502.479	-0
502.829	-0.01
503.179	-0.02
503.529	-0.01
503.879	-0.01
504.229	0.01
504.578	-0.02
504.928	-0
505.278	-0.03
505.628	-0.02
505.977	-0.02
506.327	-0.01
506.676	-0.02
507.026	-0.01
507.375	-0.03
507.725	-0.02
508.074	-0.01
508.424	-0.03
508.773	-0.02
509.122	-0.02
509.471	-0.03
509.82	-0.02
510.17	-0.01
510.519	-0.01
510.868	-0.03
511.217	-0.02
511.566	-0.02
511.915	-0.02
512.263	-0.03
512.612	-0.01
512.961	-0.02
513.31	-0.01
513.659	-0.02
514.007	-0.02
514.356	-0.02
514.704	-0.03
515.053	-0.02
515.401	-0.03
515.75	-0.03
516.098	-0.02
516.447	-0.02
516.795	-0.02
517.143	-0.03
517.491	-0.04
517.839	-0.04
518.188	-0.03
518.536	-0.02
518.884	-0.03
519.232	-0.03
519.58	-0.03
519.928	-0.02
520.275	-0.02
520.623	-0.02
520.971	-0.02
521.319	-0.02
521.666	-0.03
522.014	-0.04
522.362	-0.04
522.709	-0.03
523.057	-0.04
523.404	-0.03
523.752	-0.02
524.099	-0.03
524.446	-0.03
524.794	-0.04
525.141	-0.03
525.488	-0.03
525.835	-0.02
526.182	-0.04
526.529	-0.02
526.876	-0.02
527.223	-0.02
527.57	-0.03
527.917	-0.02
528.264	-0.02
528.611	-0.04
528.958	-0.04
529.304	-0.03
529.651	-0.04
529.998	-0.04
530.344	-0.03
530.691	-0.05
531.037	-0.03
531.384	-0.03
531.73	-0.03
532.076	-0.04
532.423	-0.03
532.769	-0.03
533.115	-0.02
533.461	-0.05
533.807	-0.03
534.154	-0.03
534.5	-0.02
534.846	-0.02
535.192	-0.03
535.537	-0.03
535.883	-0.02
536.229	-0.03
536.575	-0.02
536.921	-0.04
537.266	-0.04
537.612	-0.02
537.957	-0.02
538.303	-0.05
538.649	-0.02
538.994	-0.04
539.339	-0.03
539.685	-0.02
540.03	-0.03
540.375	-0.03
540.721	-0.04
541.066	-0.03
541.411	-0.02
541.756	-0.03
542.101	-0.03
542.446	-0.03
542.791	-0.02
543.136	-0.02
543.481	-0.03
543.825	-0.03
544.17	-0.05
544.515	-0.03
544.86	-0.04
545.204	-0.03
545.549	-0.04
545.893	-0.04
546.238	-0.04
546.582	-0.03
546.927	-0.03
547.271	-0.02
547.615	-0.03
547.96	-0.02
548.304	-0.04
548.648	-0.03
548.992	-0.04
549.336	-0.03
549.68	-0.03
550.024	-0.04
550.368	-0.03
550.712	-0.04
551.056	-0.02
551.4	-0.02
551.743	-0.02
552.087	-0.01
552.431	-0.03
552.774	-0.02
553.118	-0.03
553.462	-0.03
553.805	-0.04
554.148	-0.03
554.492	-0.03
554.835	-0.03
555.178	-0.02
555.522	-0.04
555.865	-0.02
556.208	-0.03
556.551	-0.04
556.894	-0.04
557.237	-0.01
557.58	-0.03
557.923	-0.04
558.266	-0.03
558.609	-0.03
558.952	-0.05
559.294	-0.03
559.637	-0.04
559.98	-0.03
560.322	-0.02
560.665	-0.03
561.007	-0.02
561.35	-0.04
561.692	-0.02
562.034	-0.04
562.377	-0.03
562.719	-0.04
563.061	-0.02
563.403	-0.03
563.745	-0.03
564.088	-0.02
564.43	-0.03
564.772	-0.04
565.113	-0.03
565.455	-0.03
565.797	-0.03
566.139	-0.04
566.481	-0.03
566.822	-0.03
567.164	-0.04
567.506	-0.03
567.847	-0.02
568.189	-0.03
568.53	-0.04
568.872	-0.02
569.213	-0.03
569.554	-0.03
569.895	-0.02
570.237	-0.03
570.578	-0.03
570.919	-0.04
571.26	-0.03
571.601	-0.02
571.942	-0.01
572.283	-0.04
572.624	-0.03
572.965	-0.02
573.306	-0.03
573.646	-0.02
573.987	-0.03
574.328	-0.04
574.668	-0.03
575.009	-0.03
575.349	-0.03
575.69	-0.02
576.03	-0.03
576.37	-0.04
576.711	-0.03
577.051	-0.02
577.391	-0.03
577.731	-0.04
578.072	-0.03
578.412	-0.03
578.752	-0.03
579.092	-0.03
579.431	-0.03
579.771	-0.03
580.111	-0.02
580.451	-0.02
580.791	-0.03
581.13	-0.01
581.47	-0.04
581.81	-0.03
582.149	-0.03
582.489	-0.04
582.828	-0.02
583.167	-0.03
583.507	-0.02
583.846	-0.03
584.185	-0.02
584.525	-0.01
584.864	-0.03
585.203	-0.03
585.542	-0.03
585.881	-0.03
586.22	-0.02
586.559	-0.03
586.898	-0.02
587.236	-0.02
587.575	-0.03
587.914	-0.04
588.252	-0.04
588.591	-0.03
588.93	-0.03
589.268	-0.04
589.607	-0.02
589.945	-0.03
590.283	-0.02
590.622	-0.03
590.96	-0.03
591.298	-0.04
591.636	-0.02
591.974	-0.04
592.313	-0.03
592.651	-0.03
592.989	-0.05
593.326	-0.04
593.664	-0.05
594.002	-0.04
594.34	-0.04
594.678	-0.04
595.015	-0.04
595.353	-0.03
595.691	-0.03
596.028	-0.03
596.366	-0.04
596.703	-0.03
597.04	-0.04
597.378	-0.02
597.715	-0.04
598.052	-0.04
598.389	-0.05
598.726	-0.04
599.064	-0.04
599.401	-0.04
599.738	-0.03
600.074	-0.05
600.411	-0.04
600.748	-0.04
601.085	-0.02
601.422	-0.03
601.758	-0.03
602.095	-0.02
602.432	-0.02
602.768	-0.03
603.105	-0.02
603.441	-0.03
603.777	-0.03
604.114	-0.03
604.45	-0.04
604.786	-0.02
605.122	-0.03
605.459	-0.03
605.795	-0.03
606.131	-0.02
606.467	-0.03
606.803	-0.03
607.139	-0.03
607.474	-0.03
607.81	-0.03
608.146	-0.04
608.482	-0.04
608.817	-0.03
609.153	-0.04
609.488	-0.04
609.824	-0.04
610.159	-0.04
610.495	-0.04
610.83	-0.04
611.165	-0.03
611.5	-0.04
611.836	-0.03
612.171	-0.04
612.506	-0.04
612.841	-0.03
613.176	-0.04
613.511	-0.03
613.845	-0.04
614.18	-0.03
614.515	-0.04
614.85	-0.03
615.184	-0.03
615.519	-0.02
615.854	-0.04
616.188	-0.03
616.523	-0.04
616.857	-0.03
617.191	-0.03
617.526	-0.03
617.86	-0.03
618.194	-0.04
618.528	-0.04
618.862	-0.05
619.196	-0.04
619.53	-0.03
619.864	-0.05
620.198	-0.03
620.532	-0.04
620.866	-0.04
621.2	-0.04
621.533	-0.04
621.867	-0.04
622.201	-0.03
622.534	-0.04
622.868	-0.03
623.201	-0.04
623.534	-0.04
623.868	-0.03
624.201	-0.04
624.534	-0.03
624.868	-0.03
625.201	-0.02
625.534	-0.03
625.867	-0.04
626.2	-0.04
626.533	-0.04
626.865	-0.05
627.198	-0.03
627.531	-0.04
627.864	-0.04
628.196	-0.04
628.529	-0.04
628.862	-0.04
629.194	-0.03
629.527	-0.04
629.859	-0.04
630.191	-0.04
630.524	-0.04
630.856	-0.05
631.188	-0.04
631.52	-0.04
631.852	-0.05
632.184	-0.04
632.516	-0.04
632.848	-0.05
633.18	-0.06
633.512	-0.04
633.844	-0.05
634.175	-0.05
634.507	-0.04
634.839	-0.05
635.17	-0.04
635.502	-0.04
635.833	-0.04
636.165	-0.04
636.496	-0.04
636.827	-0.04
637.159	-0.03
637.49	-0.05
637.821	-0.04
638.152	-0.03
638.483	-0.04
638.814	-0.05
639.145	-0.05
639.476	-0.06
639.807	-0.04
640.137	-0.05
640.468	-0.04
640.799	-0.04
641.129	-0.05
641.46	-0.05
641.791	-0.06
642.121	-0.07
642.451	-0.05
642.782	-0.06
643.112	-0.05
643.442	-0.05
643.773	-0.04
644.103	-0.04
644.433	-0.05
644.763	-0.04
645.093	-0.04
645.423	-0.05
645.753	-0.04
646.082	-0.05
646.412	-0.04
646.742	-0.04
647.072	-0.05
647.401	-0.03
647.731	-0.05
648.06	-0.03
648.39	-0.04
648.719	-0.04
649.048	-0.04
649.378	-0.03
649.707	-0.04
650.036	-0.05
650.365	-0.04
650.694	-0.04
651.023	-0.04
651.352	-0.04
651.681	-0.04
652.01	-0.04
652.339	-0.02
652.668	-0.04
652.996	-0.03
653.325	-0.04
653.654	-0.04
653.982	-0.04
654.311	-0.04
654.639	-0.04
654.967	-0.03
655.296	-0.05
655.624	-0.05
655.952	-0.07
656.28	-0.07
656.609	-0.05
656.937	-0.04
657.265	-0.02
657.593	-0.02
657.92	-0.01
658.248	-0.02
658.576	-0.02
658.904	-0.03
659.231	-0.03
659.559	-0.04
659.887	-0.04
660.214	-0.04
660.542	-0.03
660.869	-0.03
661.196	-0.03
661.524	-0.04
661.851	-0.03
662.178	-0.03
662.505	-0.04
662.832	-0.04
663.159	-0.05
663.486	-0.04
663.813	-0.04
664.14	-0.04
664.467	-0.04
664.794	-0.04
665.12	-0.04
665.447	-0.04
665.774	-0.04
666.1	-0.04
666.427	-0.06
666.753	-0.04
667.079	-0.04
667.406	-0.03
667.732	-0.04
668.058	-0.03
668.384	-0.05
668.71	-0.04
669.036	-0.04
669.362	-0.04
669.688	-0.04
670.014	-0.05
670.34	-0.03
670.666	-0.06
670.991	-0.04
671.317	-0.04
671.643	-0.06
671.968	-0.05
672.294	-0.06
672.619	-0.05
672.945	-0.05
673.27	-0.04
673.595	-0.04
673.92	-0.05
674.246	-0.06
674.571	-0.05
674.896	-0.05
675.221	-0.06
675.546	-0.05
675.87	-0.06
676.195	-0.06
676.52	-0.05
676.845	-0.05
677.169	-0.04
677.494	-0.04
677.819	-0.03
678.143	-0.04
678.468	-0.04
678.792	-0.04
679.116	-0.05
679.44	-0.03
679.765	-0.04
680.089	-0.05
680.413	-0.04
680.737	-0.04
681.061	-0.04
681.385	-0.04
681.709	-0.03
682.033	-0.04
682.356	-0.04
682.68	-0.04
683.004	-0.05
683.327	-0.04
683.651	-0.05
683.974	-0.05
684.298	-0.07
684.621	-0.05
684.944	-0.06
685.268	-0.05
685.591	-0.05
685.914	-0.05
686.237	-0.05
686.56	-0.05
686.883	-0.05
687.206	-0.04
687.529	-0.06
687.852	-0.05
688.175	-0.05
688.497	-0.05
688.82	-0.06
689.142	-0.06
689.465	-0.07
689.787	-0.05
690.11	-0.06
690.432	-0.06
690.755	-0.07
691.077	-0.06
691.399	-0.08
691.721	-0.06
692.043	-0.05
692.365	-0.06
692.687	-0.05
693.009	-0.05
693.331	-0.05
693.653	-0.05
693.974	-0.06
694.296	-0.06
694.618	-0.06
694.939	-0.06
695.261	-0.06
695.582	-0.06
695.904	-0.07
696.225	-0.06
696.546	-0.05
696.868	-0.05
697.189	-0.05
697.51	-0.06
697.831	-0.05
698.152	-0.05
698.473	-0.05
698.794	-0.04
699.114	-0.05
699.435	-0.06
699.756	-0.06
700.077	-0.06
700.397	-0.05
700.718	-0.05
701.038	-0.04
701.359	-0.05
701.679	-0.04
701.999	-0.05
702.32	-0.06
702.64	-0.06
702.96	-0.06
703.28	-0.06
703.6	-0.05
703.92	-0.05
704.24	-0.05
704.56	-0.06
704.879	-0.06
705.199	-0.06
705.519	-0.07
705.838	-0.07
706.158	-0.06
706.478	-0.06
706.797	-0.05
707.116	-0.05
707.436	-0.04
707.755	-0.04
708.074	-0.05
708.393	-0.05
708.712	-0.04
709.031	-0.05
709.35	-0.04
709.669	-0.05
709.988	-0.04
710.307	-0.05
710.626	-0.04
710.944	-0.04
711.263	-0.06
711.582	-0.06
711.9	-0.06
712.219	-0.05
712.537	-0.06
712.855	-0.06
713.174	-0.05
713.492	-0.05
713.81	-0.06
714.128	-0.05
714.446	-0.06
714.764	-0.05
715.082	-0.05
715.4	-0.05
715.718	-0.04
716.035	-0.04
716.353	-0.04
716.671	-0.04
716.988	-0.05
717.306	-0.04
717.623	-0.04
717.941	-0.04
718.258	-0.06
718.575	-0.05
718.893	-0.06
719.21	-0.05
719.527	-0.05
719.844	-0.07
720.161	-0.05
720.478	-0.07
720.795	-0.06
721.112	-0.06
721.428	-0.06
721.745	-0.06
722.062	-0.06
722.378	-0.06
722.695	-0.05
723.011	-0.07
723.328	-0.06
723.644	-0.05
723.96	-0.05
724.276	-0.05
724.593	-0.05
724.909	-0.05
725.225	-0.06
725.541	-0.06
725.857	-0.06
726.173	-0.06
726.488	-0.05
726.804	-0.07
727.12	-0.06
727.435	-0.05
727.751	-0.06
728.067	-0.05
728.382	-0.06
728.697	-0.06
729.013	-0.05
729.328	-0.05
729.643	-0.05
729.958	-0.05
730.273	-0.05
730.588	-0.04
730.903	-0.06
731.218	-0.05
731.533	-0.03
731.848	-0.03
732.163	-0.04
732.477	-0.04
732.792	-0.04
733.107	-0.03
733.421	-0.04
733.736	-0.04
734.05	-0.05
734.364	-0.02
734.678	-0.04
734.993	-0.05
735.307	-0.05
735.621	-0.04
735.935	-0.03
736.249	-0.04
736.563	-0.03
736.877	-0.04
737.19	-0.05
737.504	-0.04
737.818	-0.04
738.131	-0.04
738.445	-0.04
738.758	-0.04
739.072	-0.05
739.385	-0.04
739.698	-0.04
740.012	-0.04
740.325	-0.03
740.638	-0.03
740.951	-0.04
741.264	-0.05
741.577	-0.04
741.89	-0.05
742.203	-0.04
742.515	-0.05
742.828	-0.04
743.141	-0.04
743.453	-0.04
743.766	-0.04
744.078	-0.05
744.391	-0.05
744.703	-0.06
745.015	-0.03
745.327	-0.02
745.639	-0.03
745.952	-0.05
746.264	-0.04
746.575	-0.03
746.887	-0.04
747.199	-0.05
747.511	-0.04
747.823	-0.05
748.134	-0.06
748.446	-0.05
748.757	-0.05
749.069	-0.07
749.38	-0.06
749.692	-0.06
750.003	-0.06
750.314	-0.06
750.625	-0.06
750.936	-0.05
751.248	-0.05
751.559	-0.05
751.869	-0.06
752.18	-0.04
752.491	-0.05
752.802	-0.05
753.112	-0.06
753.423	-0.05
753.734	-0.04
754.044	-0.06
754.355	-0.04
754.665	-0.06
754.975	-0.04
755.285	-0.05
755.596	-0.02
755.906	-0.02
756.216	-0.03
756.526	-0.03
756.836	-0.01
757.146	-0.01
757.455	-0.01
757.765	-0.02
758.075	-0.01
758.385	-0
758.694	0.01
759.004	-0.01
759.313	-0
759.622	-0.01
759.932	-0.01
760.241	0
760.55	-0.01
760.859	-0.01
761.168	-0.02
761.477	-0.03
761.786	-0.04
762.095	-0.03
762.404	-0.05
762.713	-0.04
763.021	-0.04
763.33	-0.04
763.639	-0.03
763.947	-0.03
764.256	-0.03
764.564	-0.04
764.872	-0.01
765.181	-0.03
765.489	-0.01
765.797	-0.01
766.105	-0.02
766.413	-0.02
766.721	-0.03
767.029	-0.03
767.337	-0.03
767.644	-0.04
767.952	-0.01
768.26	-0.02
768.567	-0.04
768.875	-0.03
769.182	-0.02
769.49	-0.04
769.797	-0.03
770.104	-0.04
770.411	-0.02
770.718	-0.03
771.026	-0.03
771.333	-0.02
771.639	-0.01
771.946	-0.03
772.253	-0.03
772.56	-0.03
772.867	-0.04
773.173	-0.03
773.48	-0.03
773.786	-0.05
774.093	-0.04
774.399	-0.03
774.705	-0.04
775.012	-0.05
775.318	-0.03
775.624	-0.04
775.93	-0.05
776.236	-0.03
776.542	-0.02
776.848	-0.03
777.154	-0.01
777.459	-0.03
777.765	-0.03
778.071	-0.03
778.376	-0.03
778.682	-0.04
778.987	-0.03
779.292	-0.04
779.598	-0.04
779.903	-0.03
780.208	-0.04
780.513	-0.02
780.818	-0.03
781.123	-0.02
781.428	-0.03
781.733	-0.03
782.038	-0.02
782.343	-0.01
782.647	-0.01
782.952	-0.01
783.256	-0.01
783.561	-0.02
783.865	-0.02
784.17	-0
784.474	-0
784.778	-0.01
785.082	0
785.386	-0.02
785.69	-0
785.994	-0.02
786.298	-0
786.602	0.01
786.906	-0.01
787.209	0.01
787.513	0
787.817	-0
788.12	0.01
788.424	-0
788.727	0.01
789.03	0.03
789.333	0.01
789.637	0
789.94	0
790.243	-0.02
790.546	0.02
790.849	0.01
791.152	0.02
791.454	0
791.757	0
792.06	-0.01
792.362	0
792.665	-0.03
792.967	-0.02
793.27	-0.03
793.572	0
793.874	0.01
794.177	0.04
794.479	0.01
794.781	0.02
795.083	0.04
795.385	0.01
795.687	0.04
795.989	0.01
796.29	0.04
796.592	0
796.894	-0
797.195	0.03
797.497	0.04
797.798	0.01
798.1	0.02
798.401	0.04
798.702	-0
799.003	0.01
799.304	0.02
799.605	0.02
799.906	0.04
800.207	0.04
800.508	0
800.809	0.03
801.11	0.05
801.41	0.03
801.711	0.03
802.011	0.06
802.312	0.04
802.612	0.05
802.913	0.05
803.213	0.05
803.513	0.06
803.813	0.02
804.113	0.02
804.413	0.02
804.713	0
805.013	0.02
805.313	0.05
805.613	0.05
805.912	0.06
806.212	0.05
806.511	-0
806.811	0.01
807.11	0.05
807.41	0.07
807.709	0.03
808.008	0.02
808.307	0.03
808.606	0.08
808.905	0.01
809.204	0.08
809.503	0.06
809.802	0.08
810.101	0.04
810.399	0.04
810.698	0.04
810.997	0.02
811.295	0.01
811.593	0.04
811.892	0.04
812.19	0.04
812.488	0.08
812.786	0.05
813.084	0.01
813.383	-0
813.68	0.05
813.978	0.07
814.276	0.11
814.574	0.1
814.872	0.08
815.169	0.06
815.467	0.06
815.764	0.06
816.062	-0.01
816.359	0.01
816.656	0.06
816.954	0.03
817.251	0.05
817.548	0.04
817.845	0.11
818.142	0.04
818.439	0.02
818.735	0.07
819.032	0.05
819.329	0.08
819.626	-0.01
819.922	0.05
820.219	0.07
820.515	0.12
820.811	0.08
821.108	0.08
821.404	0.1
821.7	0.03
821.996	0
822.292	0.11
822.588	0.02
822.884	0.11
823.18	-0.04
823.475	0.08
823.771	0.02
824.067	0.01
824.362	0.03
824.658	0.1
824.953	-0.04
825.249	0.11
825.544	0.05
825.839	0.04
826.134	0.03
826.429	0.03
826.724	0
827.019	-0.09
827.314	-0.04
827.609	0
827.904	-0
828.198	0.01
828.493	0.09
828.787	0.02
829.082	0.01
829.376	0.13
829.671	0.02
829.965	-0.03
830.259	0.01
830.553	0.06
830.847	-0.01
831.141	-0.03
831.435	0.05
831.729	0.06
832.023	0.14
832.317	-0.01
832.61	0.02
832.904	-0.05
833.197	0.09
833.491	0.06
833.784	-0.04
834.077	-0.01
834.371	0.02
834.664	0.01
834.957	0.01
835.25	0.02
835.543	0.08
835.836	-0.12
836.129	-0.02
836.421	-0.08
836.714	-0
837.007	0.2
837.299	0.08
837.592	-0.04
837.884	-0.05
838.177	-0.08
838.469	-0.06
838.761	-0.03
839.053	0.12
839.345	0.07
839.637	-0.15
839.929	-0.07
840.221	0.08
840.513	-0.09
840.805	0.03
841.096	0.04
841.388	0.02
841.68	0.09
841.971	0.06
842.262	-0.09
842.554	0.1
842.845	0.02
843.136	-0.2
843.427	-0.22
843.718	0.07
844.009	0.05
844.3	-0.24
844.591	-0.19
844.882	-0.11
845.173	0.15
845.463	-0.06
845.754	-0.21
846.044	-0.05
846.335	0.08
846.625	-0.07
846.915	-0.31
847.206	0.04
847.496	-0.4
847.786	-0.31
848.076	-0.28
848.366	-0.18
848.656	-0.09
848.945	0.3
849.235	-0.04
849.525	-0.01
849.814	0.27
850.104	-0.07
850.393	-0.34
850.683	-0.12
850.972	0.14
851.261	0.05
851.551	-0.06
851.84	0.13
852.129	-0.09
852.418	-0.03
852.707	-0.27
852.995	-0.15
853.284	0.17
853.573	0.2
853.862	0.13
854.15	0.09
854.439	-0.33
854.727	-0.94
855.015	-0.2
855.304	-0.17
855.592	-0.11
855.88	-0.06
856.168	-0.29
856.456	-0.15
856.744	0.04
857.032	-0.06
857.32	-0.04
857.607	0.14
857.895	0.02
858.183	-0.3
858.47	-0.1
858.757	-0
859.045	-0
859.332	-0
859.619	-0.05
859.907	-0.23
860.194	-0.35
860.481	-0.11
860.768	-0
861.054	-0
861.341	0.9
861.628	-0
861.915	-0.3
862.201	-0.22
862.488	-0.31
862.774	-0
863.061	0.32
863.347	0.12
863.633	0.88
863.919	-0.26
864.205	-0.13
864.491	-0.23
864.777	-0
865.063	-0
865.349	-0
865.635	-0.51
865.92	-0.22
866.206	-0.26
866.492	-0
866.777	-0.45
867.062	-0.85
867.348	-0
867.633	-0.41
867.918	-0
868.203	-0
868.488	-0
868.773	-0
869.058	-0.09
869.343	-0.03
869.628	-0.36
869.912	-0
870.197	-0.12
870.482	-0
870.766	-1.13
871.05	-0
871.335	-0.18
871.619	0.36
871.903	-0.11
872.187	0.41
872.471	-0
872.755	-0
873.039	0.56
873.323	-0.21
873.607	0.43
873.89	-0.43
874.174	0.68
874.458	-0.18
874.741	0.39
875.024	1.38
875.308	-0.07
875.591	0.1
875.874	-0.11
876.157	-0
876.44	-0
876.723	0.48
877.006	-0
877.289	-0.46
877.572	-0
877.854	0.04
878.137	-0.05
878.42	0.23
878.702	0.6
878.984	-0.62
879.267	-0
879.549	-0
879.831	-0
880.113	-0
880.395	-0.15
880.677	-0.7
880.959	1
