Data from c2t_JH05_50uM_Absorbance_11-14-46-005.txt Node
Date: Thu Dec 21 11:14:46 GMT 2017
User: egn-admin
Spectrometer: OFX00224
Trigger mode: 0
Integration Time (sec): 5.000000E-2
Scans to average: 1
Nonlinearity correction enabled: false
Boxcar width: 0
Storing dark spectrum: false
XAxis mode: Wavelengths
Number of Pixels in Spectrum: 2136
>>>>>Begin Spectral Data<<<<<
154.91	-0
155.289	0.38
155.669	-0
156.048	-0
156.428	-0.65
156.807	-0
157.186	-0
157.566	0.08
157.945	0.08
158.325	-0.3
158.704	-0
159.083	-0
159.462	-0.02
159.842	-0.7
160.221	-0.48
160.6	0.18
160.979	0.6
161.359	-0
161.738	-0
162.117	-0.2
162.496	-0
162.875	-0.8
163.254	0.08
163.633	-0
164.012	-0
164.391	-0.48
164.77	-0
165.149	0.6
165.528	-0
165.907	-1.04
166.286	0.28
166.665	0.5
167.044	-0
167.423	-0
167.802	-0
168.181	-0
168.559	-0
168.938	-0
169.317	0.19
169.696	0.05
170.074	0.12
170.453	-0
170.832	-0.3
171.21	0.67
171.589	-0
171.968	-0.16
172.346	0.57
172.725	-0
173.103	-0
173.482	0.16
173.861	-0
174.239	-0
174.617	-0
174.996	-0
175.374	-1.04
175.753	-0
176.131	-0
176.51	-0.12
176.888	0.27
177.266	-0.05
177.645	0.52
178.023	0.12
178.401	-0
178.779	-0
179.158	-0.06
179.536	-0.08
179.914	-0.74
180.292	-0
180.67	-0.03
181.048	-0
181.427	-0
181.805	0.67
182.183	0.3
182.561	-0
182.939	-0.03
183.317	-0
183.695	-0.22
184.073	-0
184.451	-0
184.829	0.6
185.206	0.67
185.584	-0.55
185.962	-0
186.34	0.22
186.718	-0.03
187.096	-0
187.473	-0.08
187.851	-0.6
188.229	0.54
188.607	0.08
188.984	-0
189.362	0.08
189.74	0.16
190.117	0.56
190.495	-0.01
190.872	0.11
191.25	1.82
191.627	0.54
192.005	0.02
192.382	0.27
192.76	0.01
193.137	-0.33
193.515	0.12
193.892	0.47
194.269	1
194.647	0.08
195.024	0.05
195.401	1.59
195.779	0.07
196.156	-0.04
196.533	0.22
196.91	0.26
197.288	-0
197.665	-0.7
198.042	0.25
198.419	0.16
198.796	0.23
199.173	-0
199.55	-0.72
199.927	0.03
200.304	-0.06
200.681	-0.14
201.058	1.56
201.435	0.07
201.812	-0.04
202.189	-0.07
202.566	0.14
202.943	0.22
203.32	0.27
203.697	0.25
204.073	0.19
204.45	0.08
204.827	-0
205.204	1
205.58	0.17
205.957	0.11
206.334	0.01
206.71	-0
207.087	0.05
207.464	-0.04
207.84	0.9
208.217	0.03
208.593	0.29
208.97	-0.09
209.346	0.1
209.723	-0.03
210.099	0.17
210.476	0.67
210.852	0.2
211.228	0.34
211.605	0.1
211.981	0.08
212.357	-0
212.733	0.17
213.11	-0
213.486	-0
213.862	0.28
214.238	0.07
214.614	-0.13
214.991	0.26
215.367	0.01
215.743	-0.08
216.119	0.12
216.495	0.53
216.871	-0.04
217.247	0.16
217.623	0.02
217.999	0.07
218.375	-0.05
218.751	0.28
219.127	0.31
219.502	-0.03
219.878	-0.07
220.254	-0.23
220.63	0.06
221.006	0.2
221.381	0.09
221.757	-0
222.133	0.07
222.508	0.26
222.884	-0
223.26	0.06
223.635	-0.03
224.011	0.24
224.386	0.05
224.762	0.56
225.137	0.34
225.513	0.3
225.888	-0.54
226.264	0.12
226.639	-0.09
227.014	0.12
227.39	-0
227.765	0.52
228.14	0.08
228.516	0.34
228.891	-0.09
229.266	0.2
229.641	-0
230.017	0.25
230.392	0.3
230.767	-0.01
231.142	-0.11
231.517	0.19
231.892	-0
232.267	0.17
232.642	0.85
233.017	0.13
233.392	1.9
233.767	0.37
234.142	-0.07
234.517	0.44
234.892	0.49
235.267	0.2
235.641	0.41
236.016	1.01
236.391	0.16
236.766	-0.06
237.14	0.15
237.515	0.31
237.89	0.15
238.264	0.46
238.639	-0
239.014	0.08
239.388	0.09
239.763	0.22
240.137	0.09
240.512	0.07
240.886	-0
241.261	0.36
241.635	0.55
242.009	0.15
242.384	0.02
242.758	0.62
243.132	0.19
243.507	0.62
243.881	0.22
244.255	0.04
244.629	-0.06
245.004	0.15
245.378	0.44
245.752	0.36
246.126	-0.03
246.5	0.15
246.874	0.13
247.248	0.3
247.622	0.28
247.996	0.2
248.37	0.35
248.744	0.41
249.118	0.82
249.492	-0
249.866	0.28
250.24	0.17
250.613	0.38
250.987	0.23
251.361	0.43
251.735	0.31
252.108	0.41
252.482	0.17
252.856	0.45
253.229	0.32
253.603	0.06
253.977	0.13
254.35	0.09
254.724	0.21
255.097	1
255.471	0.2
255.844	0.25
256.218	0.08
256.591	0.34
256.964	0.27
257.338	0.13
257.711	0.26
258.084	0.24
258.458	0.19
258.831	0.37
259.204	0.29
259.577	0.26
259.95	0.25
260.323	0.26
260.697	0.23
261.07	0.25
261.443	0.27
261.816	0.23
262.189	0.25
262.562	0.22
262.935	0.27
263.308	0.27
263.68	0.21
264.053	0.21
264.426	0.19
264.799	0.23
265.172	0.22
265.545	0.17
265.917	0.21
266.29	0.22
266.663	0.19
267.035	0.17
267.408	0.23
267.781	0.18
268.153	0.15
268.526	0.17
268.898	0.17
269.271	0.15
269.643	0.18
270.016	0.2
270.388	0.19
270.76	0.15
271.133	0.15
271.505	0.12
271.877	0.14
272.25	0.17
272.622	0.16
272.994	0.15
273.366	0.14
273.739	0.15
274.111	0.15
274.483	0.15
274.855	0.16
275.227	0.16
275.599	0.15
275.971	0.14
276.343	0.16
276.715	0.14
277.087	0.15
277.459	0.15
277.831	0.16
278.203	0.16
278.574	0.17
278.946	0.15
279.318	0.15
279.69	0.16
280.061	0.15
280.433	0.15
280.805	0.16
281.176	0.17
281.548	0.16
281.92	0.16
282.291	0.16
282.663	0.16
283.034	0.18
283.406	0.17
283.777	0.17
284.148	0.18
284.52	0.17
284.891	0.18
285.262	0.18
285.634	0.19
286.005	0.19
286.376	0.2
286.747	0.21
287.119	0.21
287.49	0.2
287.861	0.21
288.232	0.21
288.603	0.22
288.974	0.23
289.345	0.19
289.716	0.23
290.087	0.23
290.458	0.23
290.829	0.22
291.2	0.24
291.571	0.23
291.941	0.24
292.312	0.24
292.683	0.24
293.054	0.24
293.424	0.25
293.795	0.25
294.166	0.25
294.536	0.25
294.907	0.26
295.277	0.25
295.648	0.26
296.018	0.26
296.389	0.27
296.759	0.26
297.13	0.27
297.5	0.26
297.871	0.26
298.241	0.28
298.611	0.28
298.981	0.28
299.352	0.28
299.722	0.28
300.092	0.28
300.462	0.29
300.832	0.3
301.202	0.3
301.573	0.3
301.943	0.31
302.313	0.32
302.683	0.31
303.053	0.31
303.422	0.32
303.792	0.32
304.162	0.33
304.532	0.33
304.902	0.34
305.272	0.34
305.641	0.35
306.011	0.36
306.381	0.36
306.75	0.35
307.12	0.35
307.49	0.38
307.859	0.35
308.229	0.38
308.598	0.39
308.968	0.39
309.337	0.37
309.707	0.38
310.076	0.38
310.445	0.39
310.815	0.39
311.184	0.4
311.553	0.41
311.923	0.41
312.292	0.41
312.661	0.43
313.03	0.43
313.399	0.44
313.768	0.43
314.137	0.44
314.506	0.44
314.875	0.45
315.244	0.45
315.613	0.45
315.982	0.45
316.351	0.47
316.72	0.47
317.089	0.49
317.458	0.47
317.826	0.49
318.195	0.5
318.564	0.51
318.933	0.51
319.301	0.51
319.67	0.52
320.038	0.51
320.407	0.52
320.775	0.53
321.144	0.54
321.512	0.54
321.881	0.55
322.249	0.56
322.618	0.57
322.986	0.57
323.354	0.56
323.723	0.57
324.091	0.6
324.459	0.59
324.827	0.59
325.195	0.6
325.564	0.6
325.932	0.6
326.3	0.62
326.668	0.62
327.036	0.63
327.404	0.63
327.772	0.63
328.14	0.63
328.508	0.62
328.875	0.65
329.243	0.68
329.611	0.69
329.979	0.68
330.346	0.69
330.714	0.67
331.082	0.67
331.449	0.67
331.817	0.68
332.185	0.7
332.552	0.7
332.92	0.72
333.287	0.71
333.655	0.72
334.022	0.74
334.389	0.73
334.757	0.74
335.124	0.75
335.491	0.75
335.859	0.75
336.226	0.75
336.593	0.76
336.96	0.79
337.327	0.77
337.695	0.77
338.062	0.77
338.429	0.8
338.796	0.8
339.163	0.79
339.53	0.79
339.897	0.81
340.263	0.8
340.63	0.81
340.997	0.81
341.364	0.81
341.731	0.82
342.097	0.82
342.464	0.83
342.831	0.83
343.197	0.84
343.564	0.84
343.931	0.82
344.297	0.85
344.664	0.84
345.03	0.85
345.396	0.85
345.763	0.85
346.129	0.85
346.496	0.84
346.862	0.85
347.228	0.86
347.594	0.86
347.961	0.89
348.327	0.87
348.693	0.87
349.059	0.86
349.425	0.87
349.791	0.86
350.157	0.86
350.523	0.85
350.889	0.87
351.255	0.88
351.621	0.86
351.987	0.85
352.353	0.86
352.719	0.88
353.084	0.86
353.45	0.87
353.816	0.89
354.181	0.87
354.547	0.86
354.913	0.86
355.278	0.87
355.644	0.86
356.009	0.86
356.375	0.85
356.74	0.85
357.106	0.83
357.471	0.85
357.836	0.83
358.202	0.86
358.567	0.82
358.932	0.83
359.297	0.85
359.663	0.83
360.028	0.83
360.393	0.84
360.758	0.82
361.123	0.78
361.488	0.79
361.853	0.8
362.218	0.8
362.583	0.78
362.948	0.78
363.312	0.77
363.677	0.79
364.042	0.77
364.407	0.76
364.772	0.77
365.136	0.75
365.501	0.75
365.865	0.74
366.23	0.74
366.595	0.74
366.959	0.74
367.324	0.75
367.688	0.73
368.052	0.72
368.417	0.71
368.781	0.7
369.145	0.7
369.51	0.68
369.874	0.69
370.238	0.68
370.602	0.68
370.967	0.65
371.331	0.7
371.695	0.67
372.059	0.66
372.423	0.66
372.787	0.65
373.151	0.63
373.515	0.62
373.878	0.62
374.242	0.61
374.606	0.61
374.97	0.62
375.334	0.6
375.697	0.58
376.061	0.58
376.425	0.57
376.788	0.57
377.152	0.56
377.515	0.57
377.879	0.55
378.242	0.54
378.606	0.54
378.969	0.52
379.333	0.52
379.696	0.52
380.059	0.51
380.422	0.5
380.786	0.49
381.149	0.5
381.512	0.48
381.875	0.46
382.238	0.44
382.601	0.45
382.964	0.43
383.327	0.42
383.69	0.43
384.053	0.45
384.416	0.42
384.779	0.41
385.142	0.41
385.504	0.39
385.867	0.38
386.23	0.38
386.593	0.39
386.955	0.38
387.318	0.37
387.68	0.36
388.043	0.35
388.405	0.34
388.768	0.35
389.13	0.33
389.493	0.34
389.855	0.33
390.217	0.32
390.58	0.33
390.942	0.31
391.304	0.3
391.666	0.3
392.028	0.3
392.391	0.3
392.753	0.29
393.115	0.29
393.477	0.29
393.839	0.29
394.201	0.27
394.563	0.28
394.924	0.27
395.286	0.28
395.648	0.26
396.01	0.25
396.371	0.27
396.733	0.25
397.095	0.25
397.456	0.26
397.818	0.25
398.18	0.23
398.541	0.24
398.903	0.23
399.264	0.23
399.625	0.24
399.987	0.23
400.348	0.23
400.709	0.23
401.071	0.23
401.432	0.23
401.793	0.22
402.154	0.21
402.515	0.22
402.876	0.21
403.238	0.22
403.599	0.21
403.96	0.21
404.32	0.2
404.681	0.21
405.042	0.21
405.403	0.2
405.764	0.22
406.125	0.22
406.485	0.21
406.846	0.21
407.207	0.21
407.567	0.21
407.928	0.21
408.288	0.19
408.649	0.2
409.009	0.19
409.37	0.19
409.73	0.2
410.091	0.18
410.451	0.18
410.811	0.19
411.171	0.18
411.532	0.18
411.892	0.17
412.252	0.17
412.612	0.18
412.972	0.19
413.332	0.17
413.692	0.18
414.052	0.18
414.412	0.18
414.772	0.19
415.132	0.18
415.492	0.18
415.851	0.18
416.211	0.18
416.571	0.19
416.931	0.19
417.29	0.19
417.65	0.17
418.009	0.19
418.369	0.18
418.728	0.19
419.088	0.18
419.447	0.18
419.807	0.18
420.166	0.18
420.525	0.18
420.884	0.17
421.244	0.18
421.603	0.17
421.962	0.17
422.321	0.18
422.68	0.18
423.039	0.18
423.398	0.16
423.757	0.17
424.116	0.16
424.475	0.17
424.834	0.17
425.193	0.17
425.551	0.16
425.91	0.17
426.269	0.16
426.628	0.17
426.986	0.16
427.345	0.16
427.703	0.16
428.062	0.17
428.42	0.17
428.779	0.15
429.137	0.17
429.496	0.17
429.854	0.16
430.212	0.17
430.57	0.15
430.929	0.16
431.287	0.15
431.645	0.15
432.003	0.14
432.361	0.16
432.719	0.17
433.077	0.15
433.435	0.14
433.793	0.15
434.151	0.15
434.509	0.14
434.866	0.16
435.224	0.15
435.582	0.15
435.94	0.15
436.297	0.14
436.655	0.14
437.012	0.14
437.37	0.14
437.727	0.14
438.085	0.15
438.442	0.14
438.8	0.14
439.157	0.13
439.514	0.15
439.872	0.14
440.229	0.14
440.586	0.13
440.943	0.13
441.3	0.12
441.657	0.13
442.014	0.14
442.371	0.14
442.728	0.13
443.085	0.14
443.442	0.13
443.799	0.13
444.156	0.12
444.513	0.11
444.869	0.13
445.226	0.13
445.583	0.13
445.939	0.13
446.296	0.13
446.652	0.12
447.009	0.12
447.365	0.12
447.722	0.11
448.078	0.12
448.434	0.11
448.791	0.12
449.147	0.11
449.503	0.11
449.859	0.11
450.215	0.1
450.571	0.1
450.928	0.11
451.284	0.1
451.64	0.11
451.995	0.1
452.351	0.1
452.707	0.1
453.063	0.11
453.419	0.1
453.775	0.1
454.13	0.1
454.486	0.1
454.842	0.1
455.197	0.09
455.553	0.08
455.908	0.08
456.264	0.09
456.619	0.09
456.975	0.09
457.33	0.08
457.685	0.08
458.04	0.08
458.396	0.07
458.751	0.08
459.106	0.07
459.461	0.07
459.816	0.06
460.171	0.07
460.526	0.07
460.881	0.07
461.236	0.07
461.591	0.06
461.946	0.07
462.301	0.05
462.655	0.06
463.01	0.05
463.365	0.06
463.719	0.05
464.074	0.05
464.428	0.05
464.783	0.04
465.137	0.04
465.492	0.04
465.846	0.04
466.201	0.04
466.555	0.05
466.909	0.05
467.263	0.03
467.618	0.03
467.972	0.05
468.326	0.04
468.68	0.03
469.034	0.03
469.388	0.03
469.742	0.03
470.096	0.03
470.45	0.02
470.804	0.03
471.157	0.02
471.511	0.02
471.865	0.03
472.218	0.02
472.572	0.03
472.926	0.02
473.279	0.02
473.633	0.01
473.986	0.02
474.34	0.02
474.693	0.01
475.046	0.02
475.4	0
475.753	0.01
476.106	0.01
476.459	0.02
476.812	0.01
477.165	0
477.519	0.01
477.872	0.01
478.224	-0
478.577	0.02
478.93	0.02
479.283	0.02
479.636	-0
479.989	0
480.341	0
480.694	0
481.047	0.01
481.399	0.01
481.752	-0
482.104	-0
482.457	0
482.809	-0
483.162	-0.01
483.514	-0.01
483.866	0
484.219	0
484.571	-0.01
484.923	-0
485.275	-0
485.627	-0.01
485.979	0.01
486.331	0
486.683	0
487.035	0
487.387	-0
487.739	-0
488.091	0.01
488.443	-0.01
488.794	-0.01
489.146	-0.02
489.498	0
489.849	-0
490.201	-0.01
490.552	-0.01
490.904	-0.01
491.255	-0
491.607	-0.01
491.958	-0
492.309	-0.02
492.661	-0
493.012	-0.02
493.363	0
493.714	-0.01
494.065	-0
494.416	0
494.767	0
495.118	-0.02
495.469	0
495.82	0.01
496.171	0
496.522	-0.02
496.872	0
497.223	-0.01
497.574	-0.02
497.924	-0.01
498.275	0.01
498.626	0
498.976	-0.02
499.327	-0.01
499.677	-0.01
500.027	-0.01
500.378	-0.01
500.728	-0.02
501.078	-0.01
501.428	-0.02
501.779	-0.02
502.129	-0.03
502.479	-0.01
502.829	-0.02
503.179	-0.02
503.529	-0.02
503.879	-0.01
504.229	-0.01
504.578	-0.02
504.928	0
505.278	-0.02
505.628	-0.03
505.977	-0.03
506.327	-0.02
506.676	-0.01
507.026	-0.02
507.375	-0.03
507.725	-0.03
508.074	-0.01
508.424	-0.02
508.773	-0.03
509.122	-0.03
509.471	-0.03
509.82	-0.03
510.17	-0.02
510.519	-0.02
510.868	-0.02
511.217	-0.02
511.566	-0.03
511.915	-0.02
512.263	-0.01
512.612	-0.01
512.961	-0.01
513.31	-0.01
513.659	-0.02
514.007	-0.03
514.356	-0.02
514.704	-0.02
515.053	-0.01
515.401	-0.03
515.75	-0.02
516.098	-0.03
516.447	-0.02
516.795	-0.03
517.143	-0.03
517.491	-0.02
517.839	-0.03
518.188	-0.03
518.536	-0.03
518.884	-0.03
519.232	-0.04
519.58	-0.03
519.928	-0.03
520.275	-0.02
520.623	-0.02
520.971	-0.04
521.319	-0.01
521.666	-0.03
522.014	-0.03
522.362	-0.02
522.709	-0.03
523.057	-0.04
523.404	-0.03
523.752	-0
524.099	-0.03
524.446	-0.02
524.794	-0.05
525.141	-0.02
525.488	-0.03
525.835	-0.02
526.182	-0.02
526.529	-0.03
526.876	-0.03
527.223	-0.03
527.57	-0.03
527.917	-0.03
528.264	-0.03
528.611	-0.03
528.958	-0.03
529.304	-0.02
529.651	-0.03
529.998	-0.03
530.344	-0.04
530.691	-0.04
531.037	-0.04
531.384	-0.04
531.73	-0.03
532.076	-0.04
532.423	-0.05
532.769	-0.02
533.115	-0.03
533.461	-0.03
533.807	-0.03
534.154	-0.02
534.5	-0.03
534.846	-0.02
535.192	-0.03
535.537	-0.03
535.883	-0.04
536.229	-0.04
536.575	-0.01
536.921	-0.03
537.266	-0.03
537.612	-0.03
537.957	-0.01
538.303	-0.03
538.649	-0.03
538.994	-0.04
539.339	-0.02
539.685	-0.03
540.03	-0.04
540.375	-0.03
540.721	-0.02
541.066	-0.03
541.411	-0.03
541.756	-0.03
542.101	-0.02
542.446	-0.02
542.791	-0.02
543.136	-0.03
543.481	-0.03
543.825	-0.03
544.17	-0.04
544.515	-0.03
544.86	-0.03
545.204	-0.03
545.549	-0.03
545.893	-0.04
546.238	-0.04
546.582	-0.04
546.927	-0.04
547.271	-0.02
547.615	-0.04
547.96	-0.03
548.304	-0.03
548.648	-0.03
548.992	-0.04
549.336	-0.04
549.68	-0.02
550.024	-0.04
550.368	-0.03
550.712	-0.04
551.056	-0.03
551.4	-0.02
551.743	-0.03
552.087	-0
552.431	-0.02
552.774	-0.02
553.118	-0.03
553.462	-0.03
553.805	-0.03
554.148	-0.02
554.492	-0.02
554.835	-0.04
555.178	-0.03
555.522	-0.05
555.865	-0.02
556.208	-0.04
556.551	-0.04
556.894	-0.04
557.237	-0.03
557.58	-0.03
557.923	-0.04
558.266	-0.03
558.609	-0.02
558.952	-0.04
559.294	-0.03
559.637	-0.04
559.98	-0.04
560.322	-0.02
560.665	-0.05
561.007	-0.02
561.35	-0.04
561.692	-0.02
562.034	-0.04
562.377	-0.03
562.719	-0.03
563.061	-0.03
563.403	-0.04
563.745	-0.04
564.088	-0.02
564.43	-0.02
564.772	-0.04
565.113	-0.03
565.455	-0.03
565.797	-0.04
566.139	-0.04
566.481	-0.02
566.822	-0.03
567.164	-0.04
567.506	-0.03
567.847	-0.04
568.189	-0.03
568.53	-0.02
568.872	-0.02
569.213	-0.02
569.554	-0.03
569.895	-0.01
570.237	-0.03
570.578	-0.03
570.919	-0.04
571.26	-0.02
571.601	-0.03
571.942	-0.03
572.283	-0.03
572.624	-0.02
572.965	-0.02
573.306	-0.03
573.646	-0.03
573.987	-0.03
574.328	-0.04
574.668	-0.03
575.009	-0.03
575.349	-0.04
575.69	-0.03
576.03	-0.03
576.37	-0.03
576.711	-0.04
577.051	-0.03
577.391	-0.03
577.731	-0.04
578.072	-0.03
578.412	-0.03
578.752	-0.03
579.092	-0.03
579.431	-0.02
579.771	-0.02
580.111	-0.01
580.451	-0.03
580.791	-0.03
581.13	-0.01
581.47	-0.03
581.81	-0.03
582.149	-0.03
582.489	-0.04
582.828	-0.03
583.167	-0.03
583.507	-0.02
583.846	-0.02
584.185	-0.02
584.525	-0.02
584.864	-0.02
585.203	-0.03
585.542	-0.02
585.881	-0.02
586.22	-0.03
586.559	-0.03
586.898	-0.02
587.236	-0.02
587.575	-0.02
587.914	-0.03
588.252	-0.03
588.591	-0.03
588.93	-0.04
589.268	-0.03
589.607	-0.02
589.945	-0.03
590.283	-0.03
590.622	-0.02
590.96	-0.03
591.298	-0.04
591.636	-0.03
591.974	-0.04
592.313	-0.04
592.651	-0.03
592.989	-0.04
593.326	-0.04
593.664	-0.04
594.002	-0.04
594.34	-0.04
594.678	-0.04
595.015	-0.04
595.353	-0.03
595.691	-0.03
596.028	-0.03
596.366	-0.03
596.703	-0.04
597.04	-0.03
597.378	-0.03
597.715	-0.04
598.052	-0.04
598.389	-0.05
598.726	-0.04
599.064	-0.04
599.401	-0.04
599.738	-0.04
600.074	-0.04
600.411	-0.05
600.748	-0.03
601.085	-0.03
601.422	-0.04
601.758	-0.03
602.095	-0.02
602.432	-0.02
602.768	-0.03
603.105	-0.03
603.441	-0.03
603.777	-0.02
604.114	-0.03
604.45	-0.03
604.786	-0.02
605.122	-0.02
605.459	-0.03
605.795	-0.03
606.131	-0.01
606.467	-0.02
606.803	-0.03
607.139	-0.04
607.474	-0.03
607.81	-0.03
608.146	-0.03
608.482	-0.02
608.817	-0.04
609.153	-0.02
609.488	-0.04
609.824	-0.04
610.159	-0.04
610.495	-0.05
610.83	-0.03
611.165	-0.04
611.5	-0.04
611.836	-0.04
612.171	-0.03
612.506	-0.04
612.841	-0.04
613.176	-0.04
613.511	-0.04
613.845	-0.04
614.18	-0.04
614.515	-0.04
614.85	-0.04
615.184	-0.04
615.519	-0.03
615.854	-0.03
616.188	-0.04
616.523	-0.03
616.857	-0.03
617.191	-0.04
617.526	-0.03
617.86	-0.04
618.194	-0.03
618.528	-0.03
618.862	-0.05
619.196	-0.03
619.53	-0.03
619.864	-0.05
620.198	-0.03
620.532	-0.03
620.866	-0.04
621.2	-0.04
621.533	-0.04
621.867	-0.04
622.201	-0.02
622.534	-0.04
622.868	-0.04
623.201	-0.03
623.534	-0.03
623.868	-0.03
624.201	-0.04
624.534	-0.03
624.868	-0.03
625.201	-0.01
625.534	-0.03
625.867	-0.03
626.2	-0.03
626.533	-0.03
626.865	-0.05
627.198	-0.03
627.531	-0.04
627.864	-0.04
628.196	-0.05
628.529	-0.05
628.862	-0.04
629.194	-0.03
629.527	-0.04
629.859	-0.04
630.191	-0.03
630.524	-0.04
630.856	-0.05
631.188	-0.03
631.52	-0.03
631.852	-0.04
632.184	-0.05
632.516	-0.05
632.848	-0.05
633.18	-0.05
633.512	-0.04
633.844	-0.05
634.175	-0.04
634.507	-0.04
634.839	-0.05
635.17	-0.04
635.502	-0.04
635.833	-0.04
636.165	-0.04
636.496	-0.03
636.827	-0.05
637.159	-0.03
637.49	-0.04
637.821	-0.05
638.152	-0.03
638.483	-0.03
638.814	-0.04
639.145	-0.06
639.476	-0.05
639.807	-0.04
640.137	-0.05
640.468	-0.03
640.799	-0.05
641.129	-0.04
641.46	-0.05
641.791	-0.04
642.121	-0.06
642.451	-0.05
642.782	-0.06
643.112	-0.05
643.442	-0.05
643.773	-0.05
644.103	-0.05
644.433	-0.04
644.763	-0.03
645.093	-0.04
645.423	-0.04
645.753	-0.04
646.082	-0.04
646.412	-0.04
646.742	-0.05
647.072	-0.04
647.401	-0.04
647.731	-0.03
648.06	-0.03
648.39	-0.04
648.719	-0.04
649.048	-0.04
649.378	-0.03
649.707	-0.04
650.036	-0.04
650.365	-0.04
650.694	-0.03
651.023	-0.04
651.352	-0.04
651.681	-0.04
652.01	-0.03
652.339	-0.02
652.668	-0.03
652.996	-0.02
653.325	-0.04
653.654	-0.04
653.982	-0.04
654.311	-0.04
654.639	-0.04
654.967	-0.03
655.296	-0.04
655.624	-0.05
655.952	-0.07
656.28	-0.06
656.609	-0.04
656.937	-0.04
657.265	-0.02
657.593	-0.02
657.92	-0
658.248	-0.01
658.576	-0.02
658.904	-0.02
659.231	-0.03
659.559	-0.03
659.887	-0.04
660.214	-0.04
660.542	-0.04
660.869	-0.03
661.196	-0.04
661.524	-0.04
661.851	-0.04
662.178	-0.03
662.505	-0.05
662.832	-0.04
663.159	-0.04
663.486	-0.05
663.813	-0.04
664.14	-0.04
664.467	-0.04
664.794	-0.03
665.12	-0.04
665.447	-0.03
665.774	-0.03
666.1	-0.04
666.427	-0.06
666.753	-0.03
667.079	-0.05
667.406	-0.04
667.732	-0.04
668.058	-0.03
668.384	-0.04
668.71	-0.04
669.036	-0.03
669.362	-0.03
669.688	-0.04
670.014	-0.05
670.34	-0.04
670.666	-0.06
670.991	-0.03
671.317	-0.05
671.643	-0.06
671.968	-0.05
672.294	-0.06
672.619	-0.06
672.945	-0.05
673.27	-0.05
673.595	-0.04
673.92	-0.05
674.246	-0.05
674.571	-0.04
674.896	-0.06
675.221	-0.06
675.546	-0.05
675.87	-0.06
676.195	-0.06
676.52	-0.05
676.845	-0.05
677.169	-0.03
677.494	-0.04
677.819	-0.04
678.143	-0.03
678.468	-0.04
678.792	-0.05
679.116	-0.03
679.44	-0.04
679.765	-0.03
680.089	-0.04
680.413	-0.04
680.737	-0.03
681.061	-0.05
681.385	-0.04
681.709	-0.03
682.033	-0.05
682.356	-0.04
682.68	-0.04
683.004	-0.04
683.327	-0.05
683.651	-0.05
683.974	-0.05
684.298	-0.06
684.621	-0.05
684.944	-0.06
685.268	-0.06
685.591	-0.04
685.914	-0.05
686.237	-0.05
686.56	-0.04
686.883	-0.06
687.206	-0.05
687.529	-0.05
687.852	-0.05
688.175	-0.04
688.497	-0.05
688.82	-0.05
689.142	-0.05
689.465	-0.06
689.787	-0.05
690.11	-0.07
690.432	-0.06
690.755	-0.07
691.077	-0.07
691.399	-0.07
691.721	-0.07
692.043	-0.06
692.365	-0.05
692.687	-0.05
693.009	-0.06
693.331	-0.05
693.653	-0.05
693.974	-0.06
694.296	-0.05
694.618	-0.05
694.939	-0.06
695.261	-0.06
695.582	-0.05
695.904	-0.05
696.225	-0.06
696.546	-0.05
696.868	-0.04
697.189	-0.05
697.51	-0.05
697.831	-0.05
698.152	-0.05
698.473	-0.05
698.794	-0.04
699.114	-0.04
699.435	-0.06
699.756	-0.05
700.077	-0.06
700.397	-0.05
700.718	-0.06
701.038	-0.04
701.359	-0.04
701.679	-0.05
701.999	-0.05
702.32	-0.06
702.64	-0.05
702.96	-0.06
703.28	-0.06
703.6	-0.05
703.92	-0.05
704.24	-0.06
704.56	-0.05
704.879	-0.05
705.199	-0.07
705.519	-0.06
705.838	-0.07
706.158	-0.06
706.478	-0.06
706.797	-0.05
707.116	-0.05
707.436	-0.04
707.755	-0.05
708.074	-0.05
708.393	-0.04
708.712	-0.03
709.031	-0.04
709.35	-0.04
709.669	-0.04
709.988	-0.04
710.307	-0.04
710.626	-0.04
710.944	-0.04
711.263	-0.05
711.582	-0.06
711.9	-0.06
712.219	-0.06
712.537	-0.06
712.855	-0.06
713.174	-0.05
713.492	-0.05
713.81	-0.05
714.128	-0.05
714.446	-0.07
714.764	-0.05
715.082	-0.05
715.4	-0.05
715.718	-0.06
716.035	-0.04
716.353	-0.04
716.671	-0.05
716.988	-0.05
717.306	-0.05
717.623	-0.04
717.941	-0.05
718.258	-0.05
718.575	-0.05
718.893	-0.05
719.21	-0.05
719.527	-0.05
719.844	-0.06
720.161	-0.06
720.478	-0.07
720.795	-0.07
721.112	-0.07
721.428	-0.06
721.745	-0.06
722.062	-0.06
722.378	-0.06
722.695	-0.06
723.011	-0.06
723.328	-0.06
723.644	-0.06
723.96	-0.05
724.276	-0.06
724.593	-0.05
724.909	-0.05
725.225	-0.06
725.541	-0.07
725.857	-0.06
726.173	-0.05
726.488	-0.05
726.804	-0.05
727.12	-0.06
727.435	-0.05
727.751	-0.06
728.067	-0.05
728.382	-0.05
728.697	-0.05
729.013	-0.06
729.328	-0.05
729.643	-0.06
729.958	-0.06
730.273	-0.06
730.588	-0.06
730.903	-0.05
731.218	-0.05
731.533	-0.04
731.848	-0.04
732.163	-0.04
732.477	-0.04
732.792	-0.04
733.107	-0.03
733.421	-0.04
733.736	-0.05
734.05	-0.05
734.364	-0.03
734.678	-0.04
734.993	-0.04
735.307	-0.05
735.621	-0.04
735.935	-0.03
736.249	-0.03
736.563	-0.04
736.877	-0.04
737.19	-0.04
737.504	-0.03
737.818	-0.04
738.131	-0.03
738.445	-0.03
738.758	-0.04
739.072	-0.05
739.385	-0.03
739.698	-0.03
740.012	-0.04
740.325	-0.04
740.638	-0.03
740.951	-0.04
741.264	-0.04
741.577	-0.04
741.89	-0.05
742.203	-0.05
742.515	-0.05
742.828	-0.04
743.141	-0.04
743.453	-0.04
743.766	-0.04
744.078	-0.04
744.391	-0.04
744.703	-0.04
745.015	-0.04
745.327	-0.03
745.639	-0.02
745.952	-0.04
746.264	-0.04
746.575	-0.04
746.887	-0.04
747.199	-0.05
747.511	-0.04
747.823	-0.04
748.134	-0.06
748.446	-0.05
748.757	-0.05
749.069	-0.06
749.38	-0.06
749.692	-0.07
750.003	-0.05
750.314	-0.05
750.625	-0.05
750.936	-0.04
751.248	-0.04
751.559	-0.05
751.869	-0.06
752.18	-0.04
752.491	-0.05
752.802	-0.06
753.112	-0.05
753.423	-0.05
753.734	-0.04
754.044	-0.06
754.355	-0.04
754.665	-0.04
754.975	-0.05
755.285	-0.03
755.596	-0.03
755.906	-0.01
756.216	-0.04
756.526	-0.03
756.836	-0.01
757.146	-0
757.455	-0.01
757.765	-0.02
758.075	-0.01
758.385	-0.01
758.694	-0.01
759.004	-0.01
759.313	-0
759.622	-0.01
759.932	-0
760.241	0
760.55	-0
760.859	-0.02
761.168	-0.03
761.477	-0.03
761.786	-0.03
762.095	-0.03
762.404	-0.04
762.713	-0.03
763.021	-0.04
763.33	-0.04
763.639	-0.02
763.947	-0.04
764.256	-0.03
764.564	-0.03
764.872	-0.01
765.181	-0.01
765.489	-0.01
765.797	-0.01
766.105	-0.02
766.413	-0.02
766.721	-0.02
767.029	-0.03
767.337	-0.02
767.644	-0.04
767.952	-0.04
768.26	-0.02
768.567	-0.04
768.875	-0.01
769.182	-0.03
769.49	-0.03
769.797	-0.03
770.104	-0.03
770.411	-0.02
770.718	-0.02
771.026	-0.02
771.333	-0.02
771.639	-0.02
771.946	-0.03
772.253	-0.03
772.56	-0.03
772.867	-0.05
773.173	-0.04
773.48	-0.02
773.786	-0.05
774.093	-0.04
774.399	-0.03
774.705	-0.03
775.012	-0.04
775.318	-0.03
775.624	-0.03
775.93	-0.04
776.236	-0.03
776.542	-0.02
776.848	-0.04
777.154	-0.02
777.459	-0.03
777.765	-0.03
778.071	-0.03
778.376	-0.04
778.682	-0.03
778.987	-0.03
779.292	-0.04
779.598	-0.04
779.903	-0.03
780.208	-0.04
780.513	-0.03
780.818	-0.03
781.123	-0.01
781.428	-0.02
781.733	-0.02
782.038	-0.01
782.343	-0.02
782.647	-0.01
782.952	-0.01
783.256	-0.01
783.561	-0
783.865	-0.02
784.17	-0
784.474	0
784.778	-0
785.082	0
785.386	-0.03
785.69	-0
785.994	-0.02
786.298	0.01
786.602	0
786.906	-0.01
787.209	0
787.513	0.01
787.817	-0
788.12	0.01
788.424	0.01
788.727	0
789.03	0.02
789.333	0.01
789.637	0.01
789.94	-0.01
790.243	0.01
790.546	0.02
790.849	0.01
791.152	0.01
791.454	-0
791.757	0.01
792.06	-0.02
792.362	-0.01
792.665	-0.04
792.967	0
793.27	0.02
793.572	0.02
793.874	-0.01
794.177	0.02
794.479	0.03
794.781	0.03
795.083	0.04
795.385	0.01
795.687	0.02
795.989	-0.02
796.29	0.02
796.592	-0
796.894	0.01
797.195	0.05
797.497	0.01
797.798	0.03
798.1	0.01
798.401	0.01
798.702	-0.02
799.003	0.01
799.304	0.04
799.605	0.04
799.906	0.04
800.207	0.05
800.508	0.03
800.809	0.05
801.11	0.03
801.41	0.05
801.711	0.04
802.011	0.05
802.312	0.05
802.612	0.03
802.913	0.08
803.213	0.06
803.513	0.07
803.813	0.04
804.113	0.01
804.413	0.05
804.713	0.06
805.013	0.02
805.313	0.07
805.613	0.06
805.912	0.06
806.212	0.06
806.511	0.01
806.811	0.05
807.11	0.02
807.41	0.09
807.709	0.02
808.008	0.05
808.307	0.02
808.606	0.08
808.905	0.04
809.204	0.1
809.503	0.11
809.802	0.09
810.101	0.08
810.399	0.06
810.698	0.06
810.997	0.04
811.295	0.02
811.593	0.05
811.892	0.06
812.19	0.08
812.488	0.03
812.786	0.08
813.084	0.01
813.383	0.03
813.68	0.08
813.978	0.06
814.276	0.12
814.574	0.13
814.872	0.12
815.169	0.09
815.467	0.06
815.764	0.08
816.062	0.02
816.359	0.09
816.656	0.06
816.954	-0
817.251	0.01
817.548	0.03
817.845	0.1
818.142	0.05
818.439	0.03
818.735	0.05
819.032	0.06
819.329	0.05
819.626	0.02
819.922	0.02
820.219	0.05
820.515	0.14
820.811	0.05
821.108	0.02
821.404	0.05
821.7	0.01
821.996	0.05
822.292	0.14
822.588	-0.01
822.884	0.07
823.18	0.05
823.475	0.08
823.771	0.07
824.067	0.05
824.362	0.08
824.658	0.09
824.953	0.05
825.249	0.1
825.544	0.07
825.839	0.08
826.134	0.04
826.429	0.09
826.724	0.11
827.019	-0
827.314	-0.04
827.609	0.08
827.904	0.05
828.198	0.01
828.493	0.12
828.787	0.07
829.082	0.03
829.376	0.11
829.671	0.08
829.965	0
830.259	0.11
830.553	0.01
830.847	0.1
831.141	-0.02
831.435	0.07
831.729	0.03
832.023	0.01
832.317	0.14
832.61	0.12
832.904	0.1
833.197	0.05
833.491	0.13
833.784	0.01
834.077	0.03
834.371	0.16
834.664	0.24
834.957	0.13
835.25	0
835.543	0.03
835.836	0.09
836.129	0.19
836.421	0.01
836.714	-0.04
837.007	0.18
837.299	0.09
837.592	0.04
837.884	0.06
838.177	0.1
838.469	0.03
838.761	0.01
839.053	0.14
839.345	0.06
839.637	-0.01
839.929	0.03
840.221	0.08
840.513	0.03
840.805	-0.09
841.096	0.07
841.388	0.08
841.68	0.05
841.971	-0.02
842.262	0.12
842.554	-0
842.845	-0.04
843.136	-0.13
843.427	-0.04
843.718	0.05
844.009	-0.02
844.3	-0.03
844.591	0.04
844.882	0.1
845.173	0.15
845.463	0.12
845.754	-0.24
846.044	-0
846.335	-0.05
846.625	-0.08
846.915	-0.03
847.206	0.19
847.496	-0.11
847.786	-0.15
848.076	-0.21
848.366	-0.06
848.656	-0.21
848.945	0.18
849.235	0.14
849.525	0.01
849.814	0.49
850.104	-0.01
850.393	-0.07
850.683	-0
850.972	-0.18
851.261	-0.01
851.551	-0.23
851.84	0.04
852.129	-0.03
852.418	-0.07
852.707	0.43
852.995	0.29
853.284	0.51
853.573	0.6
853.862	0.23
854.15	0.24
854.439	-0.32
854.727	-0.38
855.015	0.19
855.304	-0.12
855.592	0.14
855.88	0.07
856.168	-0.14
856.456	0.07
856.744	-0.18
857.032	0.46
857.32	-0.2
857.607	-0.04
857.895	-0
858.183	-0.39
858.47	-0.13
858.757	0.26
859.045	-0
859.332	-0
859.619	-0.07
859.907	0.05
860.194	-0.24
860.481	0.4
860.768	-0
861.054	-0
861.341	0.51
861.628	-0
861.915	-0
862.201	0.22
862.488	-0.4
862.774	-0
863.061	0.45
863.347	-0
863.633	-0
863.919	-0.36
864.205	0.07
864.491	0.03
864.777	-0
865.063	-0.4
865.349	-0
865.635	0.14
865.92	-0.64
866.206	-0.33
866.492	-0
866.777	-0
867.062	-0
867.348	-0
867.633	0.23
867.918	0.56
868.203	0.1
868.488	1.18
868.773	-0
869.058	0.3
869.343	-0.19
869.628	0.37
869.912	-0
870.197	0.57
870.482	-0
870.766	-0.7
871.05	-0
871.335	-0
871.619	0.76
871.903	-0.08
872.187	-0
872.471	0.93
872.755	-0
873.039	0.23
873.323	-0
873.607	-0
873.89	-0.2
874.174	0.63
874.458	0.8
874.741	0.73
875.024	-0
875.308	0.02
875.591	0.48
875.874	0.18
876.157	-0
876.44	-0
876.723	0.41
877.006	-0
877.289	-0.69
877.572	-0
877.854	-0.14
878.137	-0.21
878.42	-0
878.702	0.04
878.984	-0
879.267	0.95
879.549	0.05
879.831	0.08
880.113	-0.8
880.395	-0
880.677	-1.06
880.959	-0.34
