Data from c2t_JH05_50uM_Absorbance_11-14-59-036.txt Node
Date: Thu Dec 21 11:14:59 GMT 2017
User: egn-admin
Spectrometer: OFX00224
Trigger mode: 0
Integration Time (sec): 5.000000E-2
Scans to average: 1
Nonlinearity correction enabled: false
Boxcar width: 0
Storing dark spectrum: false
XAxis mode: Wavelengths
Number of Pixels in Spectrum: 2136
>>>>>Begin Spectral Data<<<<<
154.91	-0.21
155.289	-0
155.669	0.03
156.048	-0
156.428	-0.78
156.807	0.48
157.186	0.18
157.566	-0
157.945	0.02
158.325	-0.81
158.704	-0
159.083	-0
159.462	-0
159.842	-0
160.221	-0.3
160.6	-0.03
160.979	-0.1
161.359	-0
161.738	-0
162.117	-0
162.496	-0
162.875	-0.12
163.254	-0.05
163.633	-0
164.012	-0
164.391	-1.28
164.77	-0
165.149	-0
165.528	-0
165.907	-1.32
166.286	0.32
166.665	0.47
167.044	-0.29
167.423	-0.13
167.802	-0
168.181	-0.24
168.559	-0
168.938	0.15
169.317	0.04
169.696	0.18
170.074	0.04
170.453	-0
170.832	-0.23
171.21	0.45
171.589	-0
171.968	-0.41
172.346	-0
172.725	-0.18
173.103	0.05
173.482	0.09
173.861	-0
174.239	-0.43
174.617	-0
174.996	-0.08
175.374	-1.2
175.753	0.3
176.131	-0
176.51	0.23
176.888	-0.1
177.266	0.02
177.645	1
178.023	0.06
178.401	-0
178.779	-0
179.158	0.6
179.536	-0.58
179.914	-0.7
180.292	-0
180.67	-0.18
181.048	-0
181.427	-0.9
181.805	0.1
182.183	0.11
182.561	-0
182.939	-0.16
183.317	-0.39
183.695	-0
184.073	-0
184.451	-0
184.829	0.52
185.206	0.1
185.584	-0.57
185.962	-0
186.34	0.22
186.718	-0.14
187.096	-0
187.473	0.32
187.851	-0.3
188.229	-0.06
188.607	-0.14
188.984	0.22
189.362	0.09
189.74	-0.06
190.117	0.29
190.495	-0.21
190.872	0.11
191.25	0.08
191.627	-0.28
192.005	-0
192.382	-0.14
192.76	0.06
193.137	-0.24
193.515	0.02
193.892	0.39
194.269	-0.12
194.647	-0.04
195.024	-0
195.401	0.05
195.779	0.08
196.156	0.14
196.533	-0.16
196.91	-0.09
197.288	-0.7
197.665	-1.64
198.042	0.14
198.419	0.34
198.796	-0.03
199.173	0.26
199.55	-0.72
199.927	0.27
200.304	-0.08
200.681	-0.16
201.058	0.13
201.435	0.18
201.812	-0.2
202.189	-0.05
202.566	0.18
202.943	0.34
203.32	0.31
203.697	0.06
204.073	0.09
204.45	0.83
204.827	0.14
205.204	-0
205.58	0.39
205.957	0.1
206.334	0.49
206.71	0.81
207.087	0.11
207.464	0.12
207.84	0.03
208.217	0.16
208.593	-0.34
208.97	-0.03
209.346	-0.02
209.723	-0.09
210.099	0.1
210.476	-0.29
210.852	-0.04
211.228	-0.13
211.605	0.07
211.981	0.19
212.357	-0.03
212.733	0.21
213.11	-0.06
213.486	-0
213.862	-0.1
214.238	0.14
214.614	-0.03
214.991	-0.19
215.367	0.04
215.743	-0.11
216.119	0.02
216.495	-0.12
216.871	0.28
217.247	0.03
217.623	0.15
217.999	0.02
218.375	0.13
218.751	0.34
219.127	0.23
219.502	-0.13
219.878	0.01
220.254	-0.09
220.63	0.07
221.006	0.53
221.381	-0.01
221.757	0.04
222.133	0.07
222.508	0.13
222.884	0.01
223.26	-0.02
223.635	-0.14
224.011	-0.33
224.386	0.06
224.762	-0.14
225.137	0.5
225.513	0.09
225.888	-0.86
226.264	0.19
226.639	0.07
227.014	-0.09
227.39	-0
227.765	0.05
228.14	-0.04
228.516	0.4
228.891	-0.06
229.266	0.02
229.641	-0
230.017	0.21
230.392	-0
230.767	-0.22
231.142	-0.07
231.517	0.13
231.892	0.34
232.267	0.21
232.642	0.18
233.017	-0.09
233.392	0.52
233.767	0.03
234.142	-0.03
234.517	0.24
234.892	0.23
235.267	0.2
235.641	-0.04
236.016	0.21
236.391	0.05
236.766	-0.02
237.14	0.2
237.515	0.31
237.89	0.6
238.264	0.27
238.639	0.08
239.014	0.08
239.388	-0.07
239.763	0.25
240.137	0.09
240.512	0.88
240.886	0.29
241.261	0.01
241.635	-0.11
242.009	0.13
242.384	-0.03
242.758	-0
243.132	0.09
243.507	-0.14
243.881	0.46
244.255	0.18
244.629	-0.02
245.004	0.35
245.378	0.18
245.752	0.35
246.126	-0.11
246.5	0.19
246.874	0.2
247.248	0.07
247.622	-0.01
247.996	0.03
248.37	0.38
248.744	0.9
249.118	0.06
249.492	-0
249.866	0.12
250.24	0.07
250.613	0.1
250.987	0.32
251.361	0.26
251.735	0.18
252.108	-0.01
252.482	0.16
252.856	0.15
253.229	0.12
253.603	0.02
253.977	0.05
254.35	0.19
254.724	0.16
255.097	0.24
255.471	0.3
255.844	0.11
256.218	0.14
256.591	0.21
256.964	0.17
257.338	0.14
257.711	0.26
258.084	0.23
258.458	0.22
258.831	0.29
259.204	0.3
259.577	0.24
259.95	0.15
260.323	0.16
260.697	0.2
261.07	0.24
261.443	0.26
261.816	0.21
262.189	0.21
262.562	0.25
262.935	0.3
263.308	0.17
263.68	0.19
264.053	0.23
264.426	0.19
264.799	0.18
265.172	0.21
265.545	0.16
265.917	0.2
266.29	0.21
266.663	0.16
267.035	0.18
267.408	0.16
267.781	0.18
268.153	0.15
268.526	0.16
268.898	0.17
269.271	0.16
269.643	0.13
270.016	0.2
270.388	0.15
270.76	0.12
271.133	0.13
271.505	0.13
271.877	0.13
272.25	0.16
272.622	0.13
272.994	0.14
273.366	0.13
273.739	0.16
274.111	0.15
274.483	0.13
274.855	0.15
275.227	0.16
275.599	0.16
275.971	0.13
276.343	0.14
276.715	0.13
277.087	0.15
277.459	0.14
277.831	0.17
278.203	0.15
278.574	0.14
278.946	0.14
279.318	0.14
279.69	0.16
280.061	0.16
280.433	0.15
280.805	0.16
281.176	0.17
281.548	0.15
281.92	0.16
282.291	0.16
282.663	0.16
283.034	0.17
283.406	0.16
283.777	0.17
284.148	0.17
284.52	0.18
284.891	0.18
285.262	0.18
285.634	0.2
286.005	0.19
286.376	0.2
286.747	0.2
287.119	0.2
287.49	0.2
287.861	0.2
288.232	0.21
288.603	0.22
288.974	0.22
289.345	0.21
289.716	0.23
290.087	0.23
290.458	0.22
290.829	0.23
291.2	0.22
291.571	0.22
291.941	0.23
292.312	0.24
292.683	0.23
293.054	0.23
293.424	0.25
293.795	0.25
294.166	0.24
294.536	0.25
294.907	0.25
295.277	0.25
295.648	0.26
296.018	0.26
296.389	0.25
296.759	0.26
297.13	0.26
297.5	0.25
297.871	0.26
298.241	0.26
298.611	0.26
298.981	0.27
299.352	0.29
299.722	0.29
300.092	0.27
300.462	0.29
300.832	0.29
301.202	0.29
301.573	0.3
301.943	0.29
302.313	0.3
302.683	0.3
303.053	0.31
303.422	0.33
303.792	0.31
304.162	0.34
304.532	0.33
304.902	0.34
305.272	0.34
305.641	0.35
306.011	0.35
306.381	0.35
306.75	0.36
307.12	0.36
307.49	0.36
307.859	0.36
308.229	0.36
308.598	0.37
308.968	0.38
309.337	0.38
309.707	0.37
310.076	0.39
310.445	0.4
310.815	0.39
311.184	0.4
311.553	0.41
311.923	0.41
312.292	0.41
312.661	0.42
313.03	0.42
313.399	0.44
313.768	0.43
314.137	0.43
314.506	0.45
314.875	0.46
315.244	0.46
315.613	0.47
315.982	0.48
316.351	0.48
316.72	0.48
317.089	0.49
317.458	0.48
317.826	0.49
318.195	0.51
318.564	0.51
318.933	0.52
319.301	0.53
319.67	0.52
320.038	0.53
320.407	0.54
320.775	0.54
321.144	0.55
321.512	0.56
321.881	0.56
322.249	0.56
322.618	0.56
322.986	0.57
323.354	0.57
323.723	0.58
324.091	0.61
324.459	0.59
324.827	0.6
325.195	0.62
325.564	0.61
325.932	0.62
326.3	0.64
326.668	0.63
327.036	0.65
327.404	0.64
327.772	0.65
328.14	0.65
328.508	0.64
328.875	0.67
329.243	0.68
329.611	0.7
329.979	0.71
330.346	0.7
330.714	0.69
331.082	0.7
331.449	0.69
331.817	0.71
332.185	0.72
332.552	0.73
332.92	0.73
333.287	0.75
333.655	0.77
334.022	0.77
334.389	0.77
334.757	0.79
335.124	0.79
335.491	0.77
335.859	0.78
336.226	0.8
336.593	0.78
336.96	0.8
337.327	0.81
337.695	0.82
338.062	0.83
338.429	0.83
338.796	0.83
339.163	0.82
339.53	0.85
339.897	0.84
340.263	0.84
340.63	0.84
340.997	0.85
341.364	0.85
341.731	0.88
342.097	0.88
342.464	0.87
342.831	0.89
343.197	0.88
343.564	0.88
343.931	0.88
344.297	0.87
344.664	0.9
345.03	0.88
345.396	0.89
345.763	0.9
346.129	0.9
346.496	0.89
346.862	0.9
347.228	0.91
347.594	0.89
347.961	0.9
348.327	0.9
348.693	0.91
349.059	0.9
349.425	0.91
349.791	0.91
350.157	0.92
350.523	0.92
350.889	0.93
351.255	0.9
351.621	0.9
351.987	0.92
352.353	0.91
352.719	0.92
353.084	0.92
353.45	0.92
353.816	0.93
354.181	0.91
354.547	0.94
354.913	0.92
355.278	0.9
355.644	0.89
356.009	0.92
356.375	0.89
356.74	0.91
357.106	0.89
357.471	0.87
357.836	0.87
358.202	0.89
358.567	0.89
358.932	0.89
359.297	0.88
359.663	0.87
360.028	0.85
360.393	0.87
360.758	0.85
361.123	0.85
361.488	0.87
361.853	0.87
362.218	0.83
362.583	0.84
362.948	0.83
363.312	0.84
363.677	0.82
364.042	0.83
364.407	0.82
364.772	0.82
365.136	0.8
365.501	0.81
365.865	0.83
366.23	0.8
366.595	0.79
366.959	0.79
367.324	0.81
367.688	0.77
368.052	0.74
368.417	0.78
368.781	0.78
369.145	0.78
369.51	0.74
369.874	0.73
370.238	0.73
370.602	0.73
370.967	0.71
371.331	0.71
371.695	0.71
372.059	0.7
372.423	0.68
372.787	0.7
373.151	0.69
373.515	0.67
373.878	0.66
374.242	0.65
374.606	0.65
374.97	0.63
375.334	0.64
375.697	0.61
376.061	0.62
376.425	0.63
376.788	0.63
377.152	0.61
377.515	0.58
377.879	0.58
378.242	0.57
378.606	0.58
378.969	0.57
379.333	0.55
379.696	0.53
380.059	0.55
380.422	0.54
380.786	0.52
381.149	0.51
381.512	0.51
381.875	0.49
382.238	0.49
382.601	0.47
382.964	0.47
383.327	0.47
383.69	0.45
384.053	0.45
384.416	0.44
384.779	0.43
385.142	0.43
385.504	0.43
385.867	0.4
386.23	0.4
386.593	0.4
386.955	0.4
387.318	0.39
387.68	0.37
388.043	0.37
388.405	0.38
388.768	0.35
389.13	0.35
389.493	0.35
389.855	0.35
390.217	0.35
390.58	0.35
390.942	0.33
391.304	0.32
391.666	0.32
392.028	0.32
392.391	0.33
392.753	0.29
393.115	0.3
393.477	0.29
393.839	0.29
394.201	0.3
394.563	0.3
394.924	0.28
395.286	0.29
395.648	0.28
396.01	0.28
396.371	0.27
396.733	0.26
397.095	0.25
397.456	0.27
397.818	0.26
398.18	0.26
398.541	0.23
398.903	0.24
399.264	0.25
399.625	0.25
399.987	0.23
400.348	0.24
400.709	0.23
401.071	0.24
401.432	0.24
401.793	0.23
402.154	0.23
402.515	0.24
402.876	0.22
403.238	0.22
403.599	0.22
403.96	0.22
404.32	0.21
404.681	0.22
405.042	0.22
405.403	0.22
405.764	0.22
406.125	0.23
406.485	0.22
406.846	0.23
407.207	0.21
407.567	0.21
407.928	0.21
408.288	0.21
408.649	0.21
409.009	0.21
409.37	0.2
409.73	0.2
410.091	0.2
410.451	0.19
410.811	0.19
411.171	0.19
411.532	0.19
411.892	0.19
412.252	0.18
412.612	0.18
412.972	0.19
413.332	0.17
413.692	0.18
414.052	0.19
414.412	0.19
414.772	0.2
415.132	0.18
415.492	0.19
415.851	0.18
416.211	0.19
416.571	0.19
416.931	0.19
417.29	0.2
417.65	0.18
418.009	0.2
418.369	0.19
418.728	0.18
419.088	0.17
419.447	0.18
419.807	0.18
420.166	0.16
420.525	0.19
420.884	0.18
421.244	0.18
421.603	0.17
421.962	0.17
422.321	0.17
422.68	0.18
423.039	0.17
423.398	0.16
423.757	0.17
424.116	0.17
424.475	0.18
424.834	0.17
425.193	0.17
425.551	0.17
425.91	0.15
426.269	0.17
426.628	0.17
426.986	0.14
427.345	0.16
427.703	0.17
428.062	0.17
428.42	0.17
428.779	0.16
429.137	0.16
429.496	0.16
429.854	0.17
430.212	0.18
430.57	0.16
430.929	0.16
431.287	0.16
431.645	0.15
432.003	0.16
432.361	0.15
432.719	0.16
433.077	0.15
433.435	0.16
433.793	0.15
434.151	0.14
434.509	0.14
434.866	0.16
435.224	0.14
435.582	0.15
435.94	0.14
436.297	0.14
436.655	0.13
437.012	0.15
437.37	0.14
437.727	0.14
438.085	0.15
438.442	0.13
438.8	0.14
439.157	0.12
439.514	0.14
439.872	0.14
440.229	0.13
440.586	0.13
440.943	0.14
441.3	0.12
441.657	0.14
442.014	0.12
442.371	0.13
442.728	0.13
443.085	0.14
443.442	0.12
443.799	0.12
444.156	0.12
444.513	0.11
444.869	0.12
445.226	0.13
445.583	0.12
445.939	0.12
446.296	0.12
446.652	0.11
447.009	0.12
447.365	0.1
447.722	0.11
448.078	0.11
448.434	0.11
448.791	0.12
449.147	0.1
449.503	0.1
449.859	0.1
450.215	0.1
450.571	0.1
450.928	0.1
451.284	0.09
451.64	0.1
451.995	0.1
452.351	0.09
452.707	0.09
453.063	0.1
453.419	0.09
453.775	0.09
454.13	0.09
454.486	0.09
454.842	0.09
455.197	0.09
455.553	0.08
455.908	0.08
456.264	0.08
456.619	0.09
456.975	0.09
457.33	0.07
457.685	0.07
458.04	0.07
458.396	0.07
458.751	0.07
459.106	0.08
459.461	0.07
459.816	0.07
460.171	0.07
460.526	0.07
460.881	0.06
461.236	0.07
461.591	0.06
461.946	0.05
462.301	0.06
462.655	0.05
463.01	0.05
463.365	0.05
463.719	0.04
464.074	0.05
464.428	0.04
464.783	0.05
465.137	0.04
465.492	0.04
465.846	0.04
466.201	0.04
466.555	0.04
466.909	0.04
467.263	0.04
467.618	0.03
467.972	0.03
468.326	0.02
468.68	0.03
469.034	0.03
469.388	0.02
469.742	0.02
470.096	0.03
470.45	0.02
470.804	0.01
471.157	0.02
471.511	0.02
471.865	0.02
472.218	0.02
472.572	0.03
472.926	0.01
473.279	0.02
473.633	0.02
473.986	0.02
474.34	0.02
474.693	0.01
475.046	0.01
475.4	0.01
475.753	0.01
476.106	0.01
476.459	0.01
476.812	0.01
477.165	0.01
477.519	0.01
477.872	0.01
478.224	-0.01
478.577	0.02
478.93	0
479.283	0.02
479.636	-0.01
479.989	0
480.341	-0.01
480.694	0.01
481.047	0.01
481.399	-0
481.752	0
482.104	-0
482.457	0.01
482.809	-0.01
483.162	-0
483.514	-0.01
483.866	-0.01
484.219	-0.01
484.571	-0
484.923	-0
485.275	-0
485.627	-0
485.979	-0.02
486.331	0.01
486.683	0
487.035	-0
487.387	0
487.739	0.01
488.091	0.01
488.443	-0.01
488.794	-0.02
489.146	-0.01
489.498	0
489.849	-0
490.201	-0.01
490.552	-0
490.904	-0.01
491.255	-0.02
491.607	-0.01
491.958	-0.01
492.309	-0.01
492.661	-0.01
493.012	-0
493.363	-0
493.714	-0.01
494.065	-0
494.416	0
494.767	-0
495.118	-0.01
495.469	-0.01
495.82	-0.01
496.171	0.01
496.522	-0.02
496.872	-0
497.223	-0.01
497.574	-0.02
497.924	-0
498.275	0.01
498.626	-0.01
498.976	-0.02
499.327	-0.02
499.677	-0.02
500.027	-0.02
500.378	-0.03
500.728	-0.02
501.078	-0.01
501.428	-0.02
501.779	-0.02
502.129	-0.02
502.479	-0.01
502.829	-0.02
503.179	-0.02
503.529	-0.02
503.879	-0.02
504.229	-0
504.578	-0.02
504.928	-0
505.278	-0.01
505.628	-0.03
505.977	-0.02
506.327	-0.01
506.676	-0.02
507.026	-0
507.375	-0.03
507.725	-0.03
508.074	-0.02
508.424	-0.03
508.773	-0.03
509.122	-0.04
509.471	-0.02
509.82	-0.02
510.17	-0.02
510.519	-0.02
510.868	-0.02
511.217	-0
511.566	-0.02
511.915	-0
512.263	-0.02
512.612	-0.03
512.961	-0.03
513.31	-0.01
513.659	-0.02
514.007	-0.03
514.356	-0.03
514.704	-0.02
515.053	-0.02
515.401	-0.02
515.75	-0.03
516.098	-0.03
516.447	-0.03
516.795	-0.03
517.143	-0.03
517.491	-0.02
517.839	-0.03
518.188	-0.03
518.536	-0.03
518.884	-0.02
519.232	-0.04
519.58	-0.03
519.928	-0.02
520.275	-0.01
520.623	-0.01
520.971	-0.02
521.319	-0.02
521.666	-0.03
522.014	-0.04
522.362	-0.03
522.709	-0.03
523.057	-0.03
523.404	-0.03
523.752	-0.02
524.099	-0.03
524.446	-0.02
524.794	-0.04
525.141	-0.02
525.488	-0.03
525.835	-0.03
526.182	-0.04
526.529	-0.02
526.876	-0.03
527.223	-0.03
527.57	-0.02
527.917	-0.02
528.264	-0.02
528.611	-0.04
528.958	-0.02
529.304	-0.04
529.651	-0.04
529.998	-0.03
530.344	-0.04
530.691	-0.03
531.037	-0.03
531.384	-0.03
531.73	-0.02
532.076	-0.04
532.423	-0.04
532.769	-0.02
533.115	-0.02
533.461	-0.03
533.807	-0.02
534.154	-0.03
534.5	-0.02
534.846	-0.03
535.192	-0.03
535.537	-0.04
535.883	-0.03
536.229	-0.04
536.575	-0.03
536.921	-0.03
537.266	-0.04
537.612	-0.03
537.957	-0
538.303	-0.05
538.649	-0.02
538.994	-0.03
539.339	-0.04
539.685	-0.03
540.03	-0.02
540.375	-0.03
540.721	-0.03
541.066	-0.02
541.411	-0.03
541.756	-0.02
542.101	-0.03
542.446	-0.02
542.791	-0.02
543.136	-0.03
543.481	-0.03
543.825	-0.02
544.17	-0.04
544.515	-0.03
544.86	-0.03
545.204	-0.05
545.549	-0.03
545.893	-0.04
546.238	-0.03
546.582	-0.03
546.927	-0.03
547.271	-0.04
547.615	-0.03
547.96	-0.04
548.304	-0.04
548.648	-0.03
548.992	-0.04
549.336	-0.04
549.68	-0.02
550.024	-0.05
550.368	-0.04
550.712	-0.04
551.056	-0.03
551.4	-0.03
551.743	-0.02
552.087	-0.02
552.431	-0.02
552.774	-0.02
553.118	-0.02
553.462	-0.02
553.805	-0.03
554.148	-0.03
554.492	-0.03
554.835	-0.03
555.178	-0.01
555.522	-0.04
555.865	-0.03
556.208	-0.04
556.551	-0.05
556.894	-0.05
557.237	-0.02
557.58	-0.04
557.923	-0.05
558.266	-0.03
558.609	-0.03
558.952	-0.04
559.294	-0.02
559.637	-0.05
559.98	-0.04
560.322	-0.02
560.665	-0.04
561.007	-0.03
561.35	-0.04
561.692	-0.02
562.034	-0.04
562.377	-0.03
562.719	-0.03
563.061	-0.03
563.403	-0.03
563.745	-0.03
564.088	-0.03
564.43	-0.03
564.772	-0.03
565.113	-0.03
565.455	-0.03
565.797	-0.03
566.139	-0.03
566.481	-0.02
566.822	-0.03
567.164	-0.03
567.506	-0.03
567.847	-0.04
568.189	-0.02
568.53	-0.03
568.872	-0.03
569.213	-0.03
569.554	-0.03
569.895	-0.02
570.237	-0.04
570.578	-0.03
570.919	-0.04
571.26	-0.02
571.601	-0.03
571.942	-0.03
572.283	-0.02
572.624	-0.03
572.965	-0.01
573.306	-0.03
573.646	-0.03
573.987	-0.03
574.328	-0.03
574.668	-0.03
575.009	-0.03
575.349	-0.03
575.69	-0.02
576.03	-0.03
576.37	-0.04
576.711	-0.03
577.051	-0.02
577.391	-0.03
577.731	-0.04
578.072	-0.02
578.412	-0.02
578.752	-0.03
579.092	-0.02
579.431	-0.03
579.771	-0.02
580.111	-0.02
580.451	-0.02
580.791	-0.03
581.13	-0.01
581.47	-0.04
581.81	-0.03
582.149	-0.03
582.489	-0.04
582.828	-0.02
583.167	-0.02
583.507	-0.01
583.846	-0.02
584.185	-0.03
584.525	-0.01
584.864	-0.03
585.203	-0.04
585.542	-0.02
585.881	-0.02
586.22	-0.03
586.559	-0.02
586.898	-0.02
587.236	-0.02
587.575	-0.03
587.914	-0.03
588.252	-0.03
588.591	-0.03
588.93	-0.03
589.268	-0.03
589.607	-0.02
589.945	-0.02
590.283	-0.03
590.622	-0.03
590.96	-0.03
591.298	-0.03
591.636	-0.03
591.974	-0.04
592.313	-0.03
592.651	-0.03
592.989	-0.04
593.326	-0.03
593.664	-0.04
594.002	-0.04
594.34	-0.03
594.678	-0.04
595.015	-0.04
595.353	-0.03
595.691	-0.04
596.028	-0.04
596.366	-0.04
596.703	-0.04
597.04	-0.04
597.378	-0.02
597.715	-0.04
598.052	-0.04
598.389	-0.05
598.726	-0.04
599.064	-0.03
599.401	-0.05
599.738	-0.04
600.074	-0.04
600.411	-0.04
600.748	-0.04
601.085	-0.03
601.422	-0.04
601.758	-0.03
602.095	-0.02
602.432	-0.02
602.768	-0.04
603.105	-0.02
603.441	-0.03
603.777	-0.03
604.114	-0.04
604.45	-0.03
604.786	-0.03
605.122	-0.03
605.459	-0.03
605.795	-0.02
606.131	-0.02
606.467	-0.03
606.803	-0.03
607.139	-0.04
607.474	-0.03
607.81	-0.03
608.146	-0.04
608.482	-0.04
608.817	-0.03
609.153	-0.03
609.488	-0.04
609.824	-0.03
610.159	-0.04
610.495	-0.05
610.83	-0.04
611.165	-0.03
611.5	-0.05
611.836	-0.04
612.171	-0.03
612.506	-0.04
612.841	-0.04
613.176	-0.04
613.511	-0.04
613.845	-0.04
614.18	-0.02
614.515	-0.05
614.85	-0.03
615.184	-0.03
615.519	-0.03
615.854	-0.04
616.188	-0.04
616.523	-0.04
616.857	-0.04
617.191	-0.03
617.526	-0.03
617.86	-0.04
618.194	-0.04
618.528	-0.03
618.862	-0.04
619.196	-0.05
619.53	-0.03
619.864	-0.05
620.198	-0.03
620.532	-0.04
620.866	-0.05
621.2	-0.04
621.533	-0.04
621.867	-0.04
622.201	-0.03
622.534	-0.04
622.868	-0.03
623.201	-0.04
623.534	-0.04
623.868	-0.03
624.201	-0.04
624.534	-0.02
624.868	-0.04
625.201	-0.03
625.534	-0.02
625.867	-0.03
626.2	-0.03
626.533	-0.03
626.865	-0.05
627.198	-0.04
627.531	-0.05
627.864	-0.04
628.196	-0.04
628.529	-0.04
628.862	-0.03
629.194	-0.03
629.527	-0.04
629.859	-0.04
630.191	-0.04
630.524	-0.04
630.856	-0.04
631.188	-0.03
631.52	-0.04
631.852	-0.05
632.184	-0.05
632.516	-0.05
632.848	-0.05
633.18	-0.06
633.512	-0.05
633.844	-0.05
634.175	-0.05
634.507	-0.03
634.839	-0.05
635.17	-0.05
635.502	-0.04
635.833	-0.04
636.165	-0.03
636.496	-0.04
636.827	-0.04
637.159	-0.04
637.49	-0.04
637.821	-0.05
638.152	-0.02
638.483	-0.04
638.814	-0.04
639.145	-0.05
639.476	-0.04
639.807	-0.05
640.137	-0.05
640.468	-0.04
640.799	-0.05
641.129	-0.05
641.46	-0.05
641.791	-0.05
642.121	-0.05
642.451	-0.06
642.782	-0.06
643.112	-0.06
643.442	-0.04
643.773	-0.05
644.103	-0.05
644.433	-0.04
644.763	-0.02
645.093	-0.04
645.423	-0.03
645.753	-0.04
646.082	-0.05
646.412	-0.04
646.742	-0.04
647.072	-0.04
647.401	-0.03
647.731	-0.04
648.06	-0.03
648.39	-0.04
648.719	-0.04
649.048	-0.04
649.378	-0.03
649.707	-0.04
650.036	-0.04
650.365	-0.04
650.694	-0.03
651.023	-0.04
651.352	-0.04
651.681	-0.04
652.01	-0.04
652.339	-0.02
652.668	-0.04
652.996	-0.03
653.325	-0.04
653.654	-0.04
653.982	-0.04
654.311	-0.05
654.639	-0.05
654.967	-0.03
655.296	-0.05
655.624	-0.06
655.952	-0.07
656.28	-0.07
656.609	-0.05
656.937	-0.04
657.265	-0.02
657.593	-0.02
657.92	-0
658.248	-0.01
658.576	-0.02
658.904	-0.02
659.231	-0.03
659.559	-0.04
659.887	-0.04
660.214	-0.03
660.542	-0.04
660.869	-0.04
661.196	-0.04
661.524	-0.05
661.851	-0.04
662.178	-0.04
662.505	-0.04
662.832	-0.04
663.159	-0.05
663.486	-0.06
663.813	-0.05
664.14	-0.04
664.467	-0.03
664.794	-0.04
665.12	-0.04
665.447	-0.04
665.774	-0.03
666.1	-0.05
666.427	-0.06
666.753	-0.03
667.079	-0.05
667.406	-0.04
667.732	-0.05
668.058	-0.04
668.384	-0.05
668.71	-0.04
669.036	-0.03
669.362	-0.04
669.688	-0.04
670.014	-0.05
670.34	-0.04
670.666	-0.05
670.991	-0.03
671.317	-0.04
671.643	-0.06
671.968	-0.04
672.294	-0.06
672.619	-0.06
672.945	-0.05
673.27	-0.05
673.595	-0.04
673.92	-0.05
674.246	-0.06
674.571	-0.04
674.896	-0.05
675.221	-0.05
675.546	-0.05
675.87	-0.04
676.195	-0.05
676.52	-0.05
676.845	-0.05
677.169	-0.04
677.494	-0.03
677.819	-0.03
678.143	-0.04
678.468	-0.03
678.792	-0.04
679.116	-0.03
679.44	-0.03
679.765	-0.02
680.089	-0.05
680.413	-0.04
680.737	-0.03
681.061	-0.04
681.385	-0.03
681.709	-0.03
682.033	-0.05
682.356	-0.04
682.68	-0.04
683.004	-0.04
683.327	-0.04
683.651	-0.05
683.974	-0.05
684.298	-0.06
684.621	-0.04
684.944	-0.05
685.268	-0.05
685.591	-0.04
685.914	-0.05
686.237	-0.05
686.56	-0.04
686.883	-0.06
687.206	-0.05
687.529	-0.05
687.852	-0.05
688.175	-0.05
688.497	-0.05
688.82	-0.05
689.142	-0.05
689.465	-0.06
689.787	-0.05
690.11	-0.06
690.432	-0.07
690.755	-0.07
691.077	-0.06
691.399	-0.07
691.721	-0.07
692.043	-0.06
692.365	-0.05
692.687	-0.05
693.009	-0.06
693.331	-0.05
693.653	-0.04
693.974	-0.05
694.296	-0.06
694.618	-0.05
694.939	-0.06
695.261	-0.05
695.582	-0.06
695.904	-0.05
696.225	-0.05
696.546	-0.04
696.868	-0.05
697.189	-0.05
697.51	-0.05
697.831	-0.05
698.152	-0.04
698.473	-0.05
698.794	-0.04
699.114	-0.06
699.435	-0.06
699.756	-0.05
700.077	-0.06
700.397	-0.05
700.718	-0.06
701.038	-0.06
701.359	-0.05
701.679	-0.05
701.999	-0.05
702.32	-0.07
702.64	-0.06
702.96	-0.05
703.28	-0.06
703.6	-0.05
703.92	-0.06
704.24	-0.05
704.56	-0.07
704.879	-0.05
705.199	-0.06
705.519	-0.06
705.838	-0.06
706.158	-0.05
706.478	-0.06
706.797	-0.06
707.116	-0.05
707.436	-0.04
707.755	-0.05
708.074	-0.05
708.393	-0.04
708.712	-0.03
709.031	-0.03
709.35	-0.04
709.669	-0.04
709.988	-0.03
710.307	-0.05
710.626	-0.04
710.944	-0.03
711.263	-0.05
711.582	-0.06
711.9	-0.07
712.219	-0.06
712.537	-0.06
712.855	-0.07
713.174	-0.06
713.492	-0.06
713.81	-0.06
714.128	-0.05
714.446	-0.07
714.764	-0.07
715.082	-0.04
715.4	-0.06
715.718	-0.04
716.035	-0.04
716.353	-0.04
716.671	-0.05
716.988	-0.06
717.306	-0.05
717.623	-0.05
717.941	-0.05
718.258	-0.05
718.575	-0.05
718.893	-0.06
719.21	-0.05
719.527	-0.06
719.844	-0.07
720.161	-0.06
720.478	-0.07
720.795	-0.07
721.112	-0.07
721.428	-0.06
721.745	-0.05
722.062	-0.05
722.378	-0.07
722.695	-0.05
723.011	-0.06
723.328	-0.06
723.644	-0.06
723.96	-0.05
724.276	-0.06
724.593	-0.06
724.909	-0.05
725.225	-0.07
725.541	-0.06
725.857	-0.05
726.173	-0.05
726.488	-0.06
726.804	-0.06
727.12	-0.05
727.435	-0.04
727.751	-0.06
728.067	-0.06
728.382	-0.05
728.697	-0.06
729.013	-0.06
729.328	-0.05
729.643	-0.05
729.958	-0.06
730.273	-0.06
730.588	-0.06
730.903	-0.06
731.218	-0.05
731.533	-0.05
731.848	-0.04
732.163	-0.04
732.477	-0.05
732.792	-0.04
733.107	-0.03
733.421	-0.04
733.736	-0.04
734.05	-0.05
734.364	-0.02
734.678	-0.05
734.993	-0.04
735.307	-0.05
735.621	-0.04
735.935	-0.04
736.249	-0.03
736.563	-0.04
736.877	-0.03
737.19	-0.03
737.504	-0.03
737.818	-0.03
738.131	-0.03
738.445	-0.03
738.758	-0.04
739.072	-0.04
739.385	-0.03
739.698	-0.04
740.012	-0.03
740.325	-0.03
740.638	-0.03
740.951	-0.04
741.264	-0.04
741.577	-0.04
741.89	-0.05
742.203	-0.04
742.515	-0.05
742.828	-0.04
743.141	-0.04
743.453	-0.03
743.766	-0.03
744.078	-0.05
744.391	-0.04
744.703	-0.04
745.015	-0.04
745.327	-0.02
745.639	-0.03
745.952	-0.04
746.264	-0.04
746.575	-0.03
746.887	-0.05
747.199	-0.05
747.511	-0.04
747.823	-0.05
748.134	-0.05
748.446	-0.06
748.757	-0.05
749.069	-0.06
749.38	-0.06
749.692	-0.05
750.003	-0.05
750.314	-0.05
750.625	-0.05
750.936	-0.05
751.248	-0.04
751.559	-0.05
751.869	-0.06
752.18	-0.04
752.491	-0.06
752.802	-0.06
753.112	-0.04
753.423	-0.04
753.734	-0.04
754.044	-0.05
754.355	-0.04
754.665	-0.05
754.975	-0.05
755.285	-0.04
755.596	-0.03
755.906	-0.03
756.216	-0.04
756.526	-0.03
756.836	-0.02
757.146	-0.02
757.455	-0.01
757.765	-0.01
758.075	-0.01
758.385	-0.01
758.694	0
759.004	-0
759.313	-0.01
759.622	-0
759.932	-0.01
760.241	-0.01
760.55	-0.01
760.859	-0.01
761.168	-0.02
761.477	-0.03
761.786	-0.04
762.095	-0.04
762.404	-0.04
762.713	-0.04
763.021	-0.04
763.33	-0.04
763.639	-0.02
763.947	-0.04
764.256	-0.04
764.564	-0.03
764.872	-0.03
765.181	-0.02
765.489	-0.02
765.797	-0.01
766.105	-0.02
766.413	-0.02
766.721	-0.03
767.029	-0.01
767.337	-0.03
767.644	-0.04
767.952	-0.03
768.26	-0.03
768.567	-0.03
768.875	-0.02
769.182	-0.02
769.49	-0.04
769.797	-0.03
770.104	-0.04
770.411	-0.01
770.718	-0.02
771.026	-0.02
771.333	-0
771.639	-0.01
771.946	-0.03
772.253	-0.04
772.56	-0.04
772.867	-0.03
773.173	-0.04
773.48	-0.03
773.786	-0.05
774.093	-0.04
774.399	-0.05
774.705	-0.02
775.012	-0.03
775.318	-0.01
775.624	-0.03
775.93	-0.03
776.236	-0.03
776.542	-0.04
776.848	-0.04
777.154	-0.03
777.459	-0.04
777.765	-0.03
778.071	-0.01
778.376	-0.04
778.682	-0.03
778.987	-0.04
779.292	-0.03
779.598	-0.02
779.903	-0.04
780.208	-0.04
780.513	-0.03
780.818	-0.02
781.123	-0.02
781.428	-0.03
781.733	-0.03
782.038	-0.02
782.343	-0.01
782.647	-0.01
782.952	-0.02
783.256	-0.01
783.561	-0.01
783.865	-0.01
784.17	-0.02
784.474	-0.03
784.778	-0.01
785.082	-0.01
785.386	-0.02
785.69	-0.01
785.994	-0.02
786.298	0.01
786.602	-0.01
786.906	-0
787.209	0.01
787.513	0.01
787.817	0.01
788.12	0.02
788.424	0.01
788.727	-0.01
789.03	0.02
789.333	0.02
789.637	0.01
789.94	0
790.243	-0.01
790.546	0.03
790.849	0.01
791.152	0.01
791.454	-0.01
791.757	0.01
792.06	-0.02
792.362	0
792.665	-0.04
792.967	-0.02
793.27	0.01
793.572	-0.02
793.874	-0.01
794.177	0.01
794.479	0
794.781	0.03
795.083	0.05
795.385	0
795.687	0.02
795.989	0
796.29	0.02
796.592	0.02
796.894	0.02
797.195	0.03
797.497	0.02
797.798	0.04
798.1	0.01
798.401	0.02
798.702	0.01
799.003	-0.02
799.304	0.04
799.605	0.02
799.906	0.02
800.207	0.04
800.508	0.04
800.809	0.07
801.11	0.03
801.41	0.02
801.711	0.02
802.011	0.03
802.312	0.02
802.612	0.04
802.913	0.02
803.213	0.03
803.513	0.05
803.813	0.02
804.113	0.05
804.413	0.05
804.713	0.01
805.013	0.03
805.313	0.07
805.613	0.09
805.912	0.03
806.212	0.07
806.511	0.01
806.811	0.03
807.11	0.04
807.41	0.08
807.709	0.02
808.008	0.05
808.307	0.04
808.606	0.06
808.905	0.04
809.204	0.07
809.503	0.07
809.802	0.1
810.101	0.08
810.399	0.02
810.698	0.05
810.997	0.03
811.295	0.05
811.593	0.04
811.892	0.04
812.19	0.05
812.488	0.05
812.786	0.06
813.084	0.01
813.383	0.01
813.68	0.09
813.978	0.08
814.276	0.11
814.574	0.08
814.872	0.09
815.169	0.05
815.467	0.06
815.764	0.03
816.062	0.01
816.359	0.02
816.656	0.11
816.954	0.03
817.251	0.01
817.548	0.05
817.845	0.07
818.142	0.04
818.439	0.02
818.735	0.02
819.032	0.04
819.329	0.07
819.626	0.04
819.922	0.03
820.219	0.03
820.515	0.15
820.811	0.01
821.108	0.11
821.404	0.06
821.7	0.06
821.996	0.03
822.292	0.08
822.588	0.07
822.884	0.16
823.18	0.04
823.475	0.06
823.771	0.02
824.067	0.03
824.362	0.05
824.658	0.07
824.953	0.06
825.249	0.04
825.544	0.01
825.839	0.13
826.134	0.07
826.429	0.12
826.724	0.03
827.019	-0.01
827.314	-0.07
827.609	0.05
827.904	0.01
828.198	0.09
828.493	0.12
828.787	0.02
829.082	0.15
829.376	0.11
829.671	-0.02
829.965	-0
830.259	0.07
830.553	0.03
830.847	0.02
831.141	-0.01
831.435	0.1
831.729	0.05
832.023	0.01
832.317	0.05
832.61	0.02
832.904	0.07
833.197	0.16
833.491	0.05
833.784	0.01
834.077	0.04
834.371	0.11
834.664	0.13
834.957	-0.01
835.25	0.04
835.543	0.07
835.836	-0.05
836.129	0.09
836.421	-0.08
836.714	-0.04
837.007	0.15
837.299	0.03
837.592	-0.03
837.884	0
838.177	-0.01
838.469	0.06
838.761	0.02
839.053	-0
839.345	0.08
839.637	0.01
839.929	0.02
840.221	0.04
840.513	-0.08
840.805	0.02
841.096	-0.09
841.388	-0.03
841.68	-0.14
841.971	-0
842.262	-0.08
842.554	-0.03
842.845	-0.08
843.136	0.04
843.427	-0.07
843.718	0.16
844.009	0.06
844.3	-0.33
844.591	-0.05
844.882	0.29
845.173	0.05
845.463	-0.12
845.754	-0.02
846.044	0.04
846.335	-0.16
846.625	0.04
846.915	-0.34
847.206	-0.02
847.496	0.12
847.786	-0.16
848.076	-0.2
848.366	-0.14
848.656	-0.21
848.945	-0.02
849.235	0.14
849.525	-0.23
849.814	0.11
850.104	0.04
850.393	-0.25
850.683	0.18
850.972	-0.16
851.261	0.43
851.551	-0.37
851.84	0.06
852.129	-0.11
852.418	-0.07
852.707	-0.45
852.995	0.1
853.284	0.07
853.573	-0.18
853.862	-0.09
854.15	-0
854.439	-0.36
854.727	-0.45
855.015	-0.2
855.304	0.13
855.592	-0.33
855.88	-0.16
856.168	-0.21
856.456	-0.08
856.744	0.02
857.032	-0.23
857.32	0.03
857.607	0.34
857.895	-0.18
858.183	-0.46
858.47	0.11
858.757	-0
859.045	-0
859.332	-0
859.619	-0.06
859.907	0.08
860.194	-0.03
860.481	-0
860.768	-0
861.054	-0
861.341	-0
861.628	-0
861.915	-0.11
862.201	0.05
862.488	-0.29
862.774	-0
863.061	0.11
863.347	0.07
863.633	-0.08
863.919	0.4
864.205	-0
864.491	0.73
864.777	-0
865.063	-0.23
865.349	-0
865.635	-0
865.92	-0.62
866.206	0.1
866.492	-0
866.777	-0
867.062	-0.54
867.348	-0
867.633	0.3
867.918	-0
868.203	-0
868.488	-0
868.773	-0.95
869.058	0.34
869.343	-0.52
869.628	-0.2
869.912	-0
870.197	-0.1
870.482	-0
870.766	-0.74
871.05	-0.08
871.335	-0
871.619	0.19
871.903	0.57
872.187	-0.16
872.471	0.28
872.755	-0
873.039	0.64
873.323	0.21
873.607	0.9
873.89	-0.52
874.174	0.68
874.458	0.06
874.741	1.2
875.024	-0
875.308	-0
875.591	0.07
875.874	0.56
876.157	-0
876.44	-0
876.723	0.41
877.006	-0
877.289	-0.9
877.572	-0
877.854	-0.09
878.137	-0.09
878.42	-0
878.702	0.23
878.984	-0.15
879.267	0.18
879.549	-0
879.831	1.26
880.113	-0.48
880.395	-0
880.677	-0.88
880.959	-0.34
